LabVIEW Measurement	
Writer_Version	2
Reader_Version	2
Separator	Tab
Decimal_Separator	.
Multi_Headings	No
X_Columns	One
Time_Pref	Absolute
Operator	biomech-dyno
Date	2023/05/23
Time	16:26:31.1792034999998606061
***End_of_Header***	
	
Channels	1	
Samples	10	
Date	2023/05/23	
Time	16:37:13.9974860999999546984	
X_Dimension	Time	
X0	0.0000000000000000E+0	
Delta_X	0.010000	
***End_of_Header***		
X_Value	Untitled	Comment
0.000000	25.145497
0.010000	25.145497
0.020000	25.145497
0.030000	25.145497
0.040000	25.145497
0.050000	25.145497
0.060000	25.145497
0.070000	25.145497
0.080000	25.145497
0.090000	25.145497
0.100000	25.145497
0.110000	25.145497
0.120000	25.145497
0.130000	25.145497
0.140000	25.145497
0.150000	25.145497
0.160000	25.145497
0.170000	25.145497
0.180000	25.145497
0.190000	25.145497
0.200000	25.145497
0.210000	25.145497
0.220000	25.145497
0.230000	25.145497
0.240000	25.145497
0.250000	25.145497
0.260000	25.145497
0.270000	25.145497
0.280000	25.145497
0.290000	25.145497
0.300000	25.145497
0.310000	25.145497
0.320000	25.145497
0.330000	25.145497
0.340000	25.145497
0.350000	25.145497
0.360000	25.145497
0.370000	25.145497
0.380000	25.145497
0.390000	25.145497
0.400000	25.145497
0.410000	25.145497
0.420000	25.145497
0.430000	25.145497
0.440000	25.145497
0.450000	25.145497
0.460000	25.145497
0.470000	25.145497
0.480000	25.145497
0.490000	25.145497
0.500000	25.236653
0.510000	25.236653
0.520000	25.236653
0.530000	25.236653
0.540000	25.236653
0.550000	25.236653
0.560000	25.236653
0.570000	25.236653
0.580000	25.236653
0.590000	25.236653
0.600000	25.236653
0.610000	25.236653
0.620000	25.236653
0.630000	25.236653
0.640000	25.236653
0.650000	25.236653
0.660000	25.236653
0.670000	25.236653
0.680000	25.236653
0.690000	25.236653
0.700000	25.236653
0.710000	25.236653
0.720000	25.236653
0.730000	25.236653
0.740000	25.236653
0.750000	25.236653
0.760000	25.236653
0.770000	25.236653
0.780000	25.236653
0.790000	25.236653
0.800000	25.236653
0.810000	25.236653
0.820000	25.236653
0.830000	25.236653
0.840000	25.236653
0.850000	25.236653
0.860000	25.236653
0.870000	25.236653
0.880000	25.236653
0.890000	25.236653
0.900000	25.236653
0.910000	25.236653
0.920000	25.236653
0.930000	25.236653
0.940000	25.236653
0.950000	25.236653
0.960000	25.236653
0.970000	25.236653
0.980000	25.236653
0.990000	25.236653
1.000000	26.172400
1.010000	26.172400
1.020000	26.172400
1.030000	26.172400
1.040000	26.172400
1.050000	26.172400
1.060000	26.172400
1.070000	26.172400
1.080000	26.172400
1.090000	26.172400
1.100000	26.172400
1.110000	26.172400
1.120000	26.172400
1.130000	26.172400
1.140000	26.172400
1.150000	26.172400
1.160000	26.172400
1.170000	26.172400
1.180000	26.172400
1.190000	26.172400
1.200000	26.172400
1.210000	26.172400
1.220000	26.172400
1.230000	26.172400
1.240000	26.172400
1.250000	26.172400
1.260000	26.172400
1.270000	26.172400
1.280000	26.172400
1.290000	26.172400
1.300000	26.172400
1.310000	26.172400
1.320000	26.172400
1.330000	26.172400
1.340000	26.172400
1.350000	26.172400
1.360000	26.172400
1.370000	26.172400
1.380000	26.172400
1.390000	26.172400
1.400000	26.172400
1.410000	26.172400
1.420000	26.172400
1.430000	26.172400
1.440000	26.172400
1.450000	26.172400
1.460000	26.172400
1.470000	26.172400
1.480000	26.172400
1.490000	26.172400
1.500000	28.279834
1.510000	28.279834
1.520000	28.279834
1.530000	28.279834
1.540000	28.279834
1.550000	28.279834
1.560000	28.279834
1.570000	28.279834
1.580000	28.279834
1.590000	28.279834
1.600000	28.279834
1.610000	28.279834
1.620000	28.279834
1.630000	28.279834
1.640000	28.279834
1.650000	28.279834
1.660000	28.279834
1.670000	28.279834
1.680000	28.279834
1.690000	28.279834
1.700000	28.279834
1.710000	28.279834
1.720000	28.279834
1.730000	28.279834
1.740000	28.279834
1.750000	28.279834
1.760000	28.279834
1.770000	28.279834
1.780000	28.279834
1.790000	28.279834
1.800000	28.279834
1.810000	28.279834
1.820000	28.279834
1.830000	28.279834
1.840000	28.279834
1.850000	28.279834
1.860000	28.279834
1.870000	28.279834
1.880000	28.279834
1.890000	28.279834
1.900000	28.279834
1.910000	28.279834
1.920000	28.279834
1.930000	28.279834
1.940000	28.279834
1.950000	28.279834
1.960000	28.279834
1.970000	28.279834
1.980000	28.279834
1.990000	28.279834
2.000000	31.362158
2.010000	31.362158
2.020000	31.362158
2.030000	31.362158
2.040000	31.362158
2.050000	31.362158
2.060000	31.362158
2.070000	31.362158
2.080000	31.362158
2.090000	31.362158
2.100000	31.362158
2.110000	31.362158
2.120000	31.362158
2.130000	31.362158
2.140000	31.362158
2.150000	31.362158
2.160000	31.362158
2.170000	31.362158
2.180000	31.362158
2.190000	31.362158
2.200000	31.362158
2.210000	31.362158
2.220000	31.362158
2.230000	31.362158
2.240000	31.362158
2.250000	31.362158
2.260000	31.362158
2.270000	31.362158
2.280000	31.362158
2.290000	31.362158
2.300000	31.362158
2.310000	31.362158
2.320000	31.362158
2.330000	31.362158
2.340000	31.362158
2.350000	31.362158
2.360000	31.362158
2.370000	31.362158
2.380000	31.362158
2.390000	31.362158
2.400000	31.362158
2.410000	31.362158
2.420000	31.362158
2.430000	31.362158
2.440000	31.362158
2.450000	31.362158
2.460000	31.362158
2.470000	31.362158
2.480000	31.362158
2.490000	31.362158
2.500000	35.248982
2.510000	35.248982
2.520000	35.248982
2.530000	35.248982
2.540000	35.248982
2.550000	35.248982
2.560000	35.248982
2.570000	35.248982
2.580000	35.248982
2.590000	35.248982
2.600000	35.248982
2.610000	35.248982
2.620000	35.248982
2.630000	35.248982
2.640000	35.248982
2.650000	35.248982
2.660000	35.248982
2.670000	35.248982
2.680000	35.248982
2.690000	35.248982
2.700000	35.248982
2.710000	35.248982
2.720000	35.248982
2.730000	35.248982
2.740000	35.248982
2.750000	35.248982
2.760000	35.248982
2.770000	35.248982
2.780000	35.248982
2.790000	35.248982
2.800000	35.248982
2.810000	35.248982
2.820000	35.248982
2.830000	35.248982
2.840000	35.248982
2.850000	35.248982
2.860000	35.248982
2.870000	35.248982
2.880000	35.248982
2.890000	35.248982
2.900000	35.248982
2.910000	35.248982
2.920000	35.248982
2.930000	35.248982
2.940000	35.248982
2.950000	35.248982
2.960000	35.248982
2.970000	35.248982
2.980000	35.248982
2.990000	35.248982
3.000000	39.730055
3.010000	39.730055
3.020000	39.730055
3.030000	39.730055
3.040000	39.730055
3.050000	39.730055
3.060000	39.730055
3.070000	39.730055
3.080000	39.730055
3.090000	39.730055
3.100000	39.730055
3.110000	39.730055
3.120000	39.730055
3.130000	39.730055
3.140000	39.730055
3.150000	39.730055
3.160000	39.730055
3.170000	39.730055
3.180000	39.730055
3.190000	39.730055
3.200000	39.730055
3.210000	39.730055
3.220000	39.730055
3.230000	39.730055
3.240000	39.730055
3.250000	39.730055
3.260000	39.730055
3.270000	39.730055
3.280000	39.730055
3.290000	39.730055
3.300000	39.730055
3.310000	39.730055
3.320000	39.730055
3.330000	39.730055
3.340000	39.730055
3.350000	39.730055
3.360000	39.730055
3.370000	39.730055
3.380000	39.730055
3.390000	39.730055
3.400000	39.730055
3.410000	39.730055
3.420000	39.730055
3.430000	39.730055
3.440000	39.730055
3.450000	39.730055
3.460000	39.730055
3.470000	39.730055
3.480000	39.730055
3.490000	39.730055
3.500000	44.510885
3.510000	44.510885
3.520000	44.510885
3.530000	44.510885
3.540000	44.510885
3.550000	44.510885
3.560000	44.510885
3.570000	44.510885
3.580000	44.510885
3.590000	44.510885
3.600000	44.510885
3.610000	44.510885
3.620000	44.510885
3.630000	44.510885
3.640000	44.510885
3.650000	44.510885
3.660000	44.510885
3.670000	44.510885
3.680000	44.510885
3.690000	44.510885
3.700000	44.510885
3.710000	44.510885
3.720000	44.510885
3.730000	44.510885
3.740000	44.510885
3.750000	44.510885
3.760000	44.510885
3.770000	44.510885
3.780000	44.510885
3.790000	44.510885
3.800000	44.510885
3.810000	44.510885
3.820000	44.510885
3.830000	44.510885
3.840000	44.510885
3.850000	44.510885
3.860000	44.510885
3.870000	44.510885
3.880000	44.510885
3.890000	44.510885
3.900000	44.510885
3.910000	44.510885
3.920000	44.510885
3.930000	44.510885
3.940000	44.510885
3.950000	44.510885
3.960000	44.510885
3.970000	44.510885
3.980000	44.510885
3.990000	44.510885
4.000000	48.610577
4.010000	48.610577
4.020000	48.610577
4.030000	48.610577
4.040000	48.610577
4.050000	48.610577
4.060000	48.610577
4.070000	48.610577
4.080000	48.610577
4.090000	48.610577
4.100000	48.610577
4.110000	48.610577
4.120000	48.610577
4.130000	48.610577
4.140000	48.610577
4.150000	48.610577
4.160000	48.610577
4.170000	48.610577
4.180000	48.610577
4.190000	48.610577
4.200000	48.610577
4.210000	48.610577
4.220000	48.610577
4.230000	48.610577
4.240000	48.610577
4.250000	48.610577
4.260000	48.610577
4.270000	48.610577
4.280000	48.610577
4.290000	48.610577
4.300000	48.610577
4.310000	48.610577
4.320000	48.610577
4.330000	48.610577
4.340000	48.610577
4.350000	48.610577
4.360000	48.610577
4.370000	48.610577
4.380000	48.610577
4.390000	48.610577
4.400000	48.610577
4.410000	48.610577
4.420000	48.610577
4.430000	48.610577
4.440000	48.610577
4.450000	48.610577
4.460000	48.610577
4.470000	48.610577
4.480000	48.610577
4.490000	48.610577
4.500000	51.687415
4.510000	51.687415
4.520000	51.687415
4.530000	51.687415
4.540000	51.687415
4.550000	51.687415
4.560000	51.687415
4.570000	51.687415
4.580000	51.687415
4.590000	51.687415
4.600000	51.687415
4.610000	51.687415
4.620000	51.687415
4.630000	51.687415
4.640000	51.687415
4.650000	51.687415
4.660000	51.687415
4.670000	51.687415
4.680000	51.687415
4.690000	51.687415
4.700000	51.687415
4.710000	51.687415
4.720000	51.687415
4.730000	51.687415
4.740000	51.687415
4.750000	51.687415
4.760000	51.687415
4.770000	51.687415
4.780000	51.687415
4.790000	51.687415
4.800000	51.687415
4.810000	51.687415
4.820000	51.687415
4.830000	51.687415
4.840000	51.687415
4.850000	51.687415
4.860000	51.687415
4.870000	51.687415
4.880000	51.687415
4.890000	51.687415
4.900000	51.687415
4.910000	51.687415
4.920000	51.687415
4.930000	51.687415
4.940000	51.687415
4.950000	51.687415
4.960000	51.687415
4.970000	51.687415
4.980000	51.687415
4.990000	51.687415
5.000000	53.931985
5.010000	53.931985
5.020000	53.931985
5.030000	53.931985
5.040000	53.931985
5.050000	53.931985
5.060000	53.931985
5.070000	53.931985
5.080000	53.931985
5.090000	53.931985
5.100000	53.931985
5.110000	53.931985
5.120000	53.931985
5.130000	53.931985
5.140000	53.931985
5.150000	53.931985
5.160000	53.931985
5.170000	53.931985
5.180000	53.931985
5.190000	53.931985
5.200000	53.931985
5.210000	53.931985
5.220000	53.931985
5.230000	53.931985
5.240000	53.931985
5.250000	53.931985
5.260000	53.931985
5.270000	53.931985
5.280000	53.931985
5.290000	53.931985
5.300000	53.931985
5.310000	53.931985
5.320000	53.931985
5.330000	53.931985
5.340000	53.931985
5.350000	53.931985
5.360000	53.931985
5.370000	53.931985
5.380000	53.931985
5.390000	53.931985
5.400000	53.931985
5.410000	53.931985
5.420000	53.931985
5.430000	53.931985
5.440000	53.931985
5.450000	53.931985
5.460000	53.931985
5.470000	53.931985
5.480000	53.931985
5.490000	53.931985
5.500000	55.522481
5.510000	55.522481
5.520000	55.522481
5.530000	55.522481
5.540000	55.522481
5.550000	55.522481
5.560000	55.522481
5.570000	55.522481
5.580000	55.522481
5.590000	55.522481
5.600000	55.522481
5.610000	55.522481
5.620000	55.522481
5.630000	55.522481
5.640000	55.522481
5.650000	55.522481
5.660000	55.522481
5.670000	55.522481
5.680000	55.522481
5.690000	55.522481
5.700000	55.522481
5.710000	55.522481
5.720000	55.522481
5.730000	55.522481
5.740000	55.522481
5.750000	55.522481
5.760000	55.522481
5.770000	55.522481
5.780000	55.522481
5.790000	55.522481
5.800000	55.522481
5.810000	55.522481
5.820000	55.522481
5.830000	55.522481
5.840000	55.522481
5.850000	55.522481
5.860000	55.522481
5.870000	55.522481
5.880000	55.522481
5.890000	55.522481
5.900000	55.522481
5.910000	55.522481
5.920000	55.522481
5.930000	55.522481
5.940000	55.522481
5.950000	55.522481
5.960000	55.522481
5.970000	55.522481
5.980000	55.522481
5.990000	55.522481
6.000000	56.583853
6.010000	56.583853
6.020000	56.583853
6.030000	56.583853
6.040000	56.583853
6.050000	56.583853
6.060000	56.583853
6.070000	56.583853
6.080000	56.583853
6.090000	56.583853
6.100000	56.583853
6.110000	56.583853
6.120000	56.583853
6.130000	56.583853
6.140000	56.583853
6.150000	56.583853
6.160000	56.583853
6.170000	56.583853
6.180000	56.583853
6.190000	56.583853
6.200000	56.583853
6.210000	56.583853
6.220000	56.583853
6.230000	56.583853
6.240000	56.583853
6.250000	56.583853
6.260000	56.583853
6.270000	56.583853
6.280000	56.583853
6.290000	56.583853
6.300000	56.583853
6.310000	56.583853
6.320000	56.583853
6.330000	56.583853
6.340000	56.583853
6.350000	56.583853
6.360000	56.583853
6.370000	56.583853
6.380000	56.583853
6.390000	56.583853
6.400000	56.583853
6.410000	56.583853
6.420000	56.583853
6.430000	56.583853
6.440000	56.583853
6.450000	56.583853
6.460000	56.583853
6.470000	56.583853
6.480000	56.583853
6.490000	56.583853
6.500000	57.260530
6.510000	57.260530
6.520000	57.260530
6.530000	57.260530
6.540000	57.260530
6.550000	57.260530
6.560000	57.260530
6.570000	57.260530
6.580000	57.260530
6.590000	57.260530
6.600000	57.260530
6.610000	57.260530
6.620000	57.260530
6.630000	57.260530
6.640000	57.260530
6.650000	57.260530
6.660000	57.260530
6.670000	57.260530
6.680000	57.260530
6.690000	57.260530
6.700000	57.260530
6.710000	57.260530
6.720000	57.260530
6.730000	57.260530
6.740000	57.260530
6.750000	57.260530
6.760000	57.260530
6.770000	57.260530
6.780000	57.260530
6.790000	57.260530
6.800000	57.260530
6.810000	57.260530
6.820000	57.260530
6.830000	57.260530
6.840000	57.260530
6.850000	57.260530
6.860000	57.260530
6.870000	57.260530
6.880000	57.260530
6.890000	57.260530
6.900000	57.260530
6.910000	57.260530
6.920000	57.260530
6.930000	57.260530
6.940000	57.260530
6.950000	57.260530
6.960000	57.260530
6.970000	57.260530
6.980000	57.260530
6.990000	57.260530
7.000000	57.605550
7.010000	57.605550
7.020000	57.605550
7.030000	57.605550
7.040000	57.605550
7.050000	57.605550
7.060000	57.605550
7.070000	57.605550
7.080000	57.605550
7.090000	57.605550
7.100000	57.605550
7.110000	57.605550
7.120000	57.605550
7.130000	57.605550
7.140000	57.605550
7.150000	57.605550
7.160000	57.605550
7.170000	57.605550
7.180000	57.605550
7.190000	57.605550
7.200000	57.605550
7.210000	57.605550
7.220000	57.605550
7.230000	57.605550
7.240000	57.605550
7.250000	57.605550
7.260000	57.605550
7.270000	57.605550
7.280000	57.605550
7.290000	57.605550
7.300000	57.605550
7.310000	57.605550
7.320000	57.605550
7.330000	57.605550
7.340000	57.605550
7.350000	57.605550
7.360000	57.605550
7.370000	57.605550
7.380000	57.605550
7.390000	57.605550
7.400000	57.605550
7.410000	57.605550
7.420000	57.605550
7.430000	57.605550
7.440000	57.605550
7.450000	57.605550
7.460000	57.605550
7.470000	57.605550
7.480000	57.605550
7.490000	57.605550
7.500000	57.691852
7.510000	57.691852
7.520000	57.691852
7.530000	57.691852
7.540000	57.691852
7.550000	57.691852
7.560000	57.691852
7.570000	57.691852
7.580000	57.691852
7.590000	57.691852
7.600000	57.691852
7.610000	57.691852
7.620000	57.691852
7.630000	57.691852
7.640000	57.691852
7.650000	57.691852
7.660000	57.691852
7.670000	57.691852
7.680000	57.691852
7.690000	57.691852
7.700000	57.691852
7.710000	57.691852
7.720000	57.691852
7.730000	57.691852
7.740000	57.691852
7.750000	57.691852
7.760000	57.691852
7.770000	57.691852
7.780000	57.691852
7.790000	57.691852
7.800000	57.691852
7.810000	57.691852
7.820000	57.691852
7.830000	57.691852
7.840000	57.691852
7.850000	57.691852
7.860000	57.691852
7.870000	57.691852
7.880000	57.691852
7.890000	57.691852
7.900000	57.691852
7.910000	57.691852
7.920000	57.691852
7.930000	57.691852
7.940000	57.691852
7.950000	57.691852
7.960000	57.691852
7.970000	57.691852
7.980000	57.691852
7.990000	57.691852
8.000000	57.579485
8.010000	57.579485
8.020000	57.579485
8.030000	57.579485
8.040000	57.579485
8.050000	57.579485
8.060000	57.579485
8.070000	57.579485
8.080000	57.579485
8.090000	57.579485
8.100000	57.579485
8.110000	57.579485
8.120000	57.579485
8.130000	57.579485
8.140000	57.579485
8.150000	57.579485
8.160000	57.579485
8.170000	57.579485
8.180000	57.579485
8.190000	57.579485
8.200000	57.579485
8.210000	57.579485
8.220000	57.579485
8.230000	57.579485
8.240000	57.579485
8.250000	57.579485
8.260000	57.579485
8.270000	57.579485
8.280000	57.579485
8.290000	57.579485
8.300000	57.579485
8.310000	57.579485
8.320000	57.579485
8.330000	57.579485
8.340000	57.579485
8.350000	57.579485
8.360000	57.579485
8.370000	57.579485
8.380000	57.579485
8.390000	57.579485
8.400000	57.579485
8.410000	57.579485
8.420000	57.579485
8.430000	57.579485
8.440000	57.579485
8.450000	57.579485
8.460000	57.579485
8.470000	57.579485
8.480000	57.579485
8.490000	57.579485
8.500000	57.332583
8.510000	57.332583
8.520000	57.332583
8.530000	57.332583
8.540000	57.332583
8.550000	57.332583
8.560000	57.332583
8.570000	57.332583
8.580000	57.332583
8.590000	57.332583
8.600000	57.332583
8.610000	57.332583
8.620000	57.332583
8.630000	57.332583
8.640000	57.332583
8.650000	57.332583
8.660000	57.332583
8.670000	57.332583
8.680000	57.332583
8.690000	57.332583
8.700000	57.332583
8.710000	57.332583
8.720000	57.332583
8.730000	57.332583
8.740000	57.332583
8.750000	57.332583
8.760000	57.332583
8.770000	57.332583
8.780000	57.332583
8.790000	57.332583
8.800000	57.332583
8.810000	57.332583
8.820000	57.332583
8.830000	57.332583
8.840000	57.332583
8.850000	57.332583
8.860000	57.332583
8.870000	57.332583
8.880000	57.332583
8.890000	57.332583
8.900000	57.332583
8.910000	57.332583
8.920000	57.332583
8.930000	57.332583
8.940000	57.332583
8.950000	57.332583
8.960000	57.332583
8.970000	57.332583
8.980000	57.332583
8.990000	57.332583
9.000000	56.995995
9.010000	56.995995
9.020000	56.995995
9.030000	56.995995
9.040000	56.995995
9.050000	56.995995
9.060000	56.995995
9.070000	56.995995
9.080000	56.995995
9.090000	56.995995
9.100000	56.995995
9.110000	56.995995
9.120000	56.995995
9.130000	56.995995
9.140000	56.995995
9.150000	56.995995
9.160000	56.995995
9.170000	56.995995
9.180000	56.995995
9.190000	56.995995
9.200000	56.995995
9.210000	56.995995
9.220000	56.995995
9.230000	56.995995
9.240000	56.995995
9.250000	56.995995
9.260000	56.995995
9.270000	56.995995
9.280000	56.995995
9.290000	56.995995
9.300000	56.995995
9.310000	56.995995
9.320000	56.995995
9.330000	56.995995
9.340000	56.995995
9.350000	56.995995
9.360000	56.995995
9.370000	56.995995
9.380000	56.995995
9.390000	56.995995
9.400000	56.995995
9.410000	56.995995
9.420000	56.995995
9.430000	56.995995
9.440000	56.995995
9.450000	56.995995
9.460000	56.995995
9.470000	56.995995
9.480000	56.995995
9.490000	56.995995
9.500000	56.570137
9.510000	56.570137
9.520000	56.570137
9.530000	56.570137
9.540000	56.570137
9.550000	56.570137
9.560000	56.570137
9.570000	56.570137
9.580000	56.570137
9.590000	56.570137
9.600000	56.570137
9.610000	56.570137
9.620000	56.570137
9.630000	56.570137
9.640000	56.570137
9.650000	56.570137
9.660000	56.570137
9.670000	56.570137
9.680000	56.570137
9.690000	56.570137
9.700000	56.570137
9.710000	56.570137
9.720000	56.570137
9.730000	56.570137
9.740000	56.570137
9.750000	56.570137
9.760000	56.570137
9.770000	56.570137
9.780000	56.570137
9.790000	56.570137
9.800000	56.570137
9.810000	56.570137
9.820000	56.570137
9.830000	56.570137
9.840000	56.570137
9.850000	56.570137
9.860000	56.570137
9.870000	56.570137
9.880000	56.570137
9.890000	56.570137
9.900000	56.570137
9.910000	56.570137
9.920000	56.570137
9.930000	56.570137
9.940000	56.570137
9.950000	56.570137
9.960000	56.570137
9.970000	56.570137
9.980000	56.570137
9.990000	56.570137
10.000000	56.066992
10.010000	56.066992
10.020000	56.066992
10.030000	56.066992
10.040000	56.066992
10.050000	56.066992
10.060000	56.066992
10.070000	56.066992
10.080000	56.066992
10.090000	56.066992
10.100000	56.066992
10.110000	56.066992
10.120000	56.066992
10.130000	56.066992
10.140000	56.066992
10.150000	56.066992
10.160000	56.066992
10.170000	56.066992
10.180000	56.066992
10.190000	56.066992
10.200000	56.066992
10.210000	56.066992
10.220000	56.066992
10.230000	56.066992
10.240000	56.066992
10.250000	56.066992
10.260000	56.066992
10.270000	56.066992
10.280000	56.066992
10.290000	56.066992
10.300000	56.066992
10.310000	56.066992
10.320000	56.066992
10.330000	56.066992
10.340000	56.066992
10.350000	56.066992
10.360000	56.066992
10.370000	56.066992
10.380000	56.066992
10.390000	56.066992
10.400000	56.066992
10.410000	56.066992
10.420000	56.066992
10.430000	56.066992
10.440000	56.066992
10.450000	56.066992
10.460000	56.066992
10.470000	56.066992
10.480000	56.066992
10.490000	56.066992
10.500000	55.524111
10.510000	55.524111
10.520000	55.524111
10.530000	55.524111
10.540000	55.524111
10.550000	55.524111
10.560000	55.524111
10.570000	55.524111
10.580000	55.524111
10.590000	55.524111
10.600000	55.524111
10.610000	55.524111
10.620000	55.524111
10.630000	55.524111
10.640000	55.524111
10.650000	55.524111
10.660000	55.524111
10.670000	55.524111
10.680000	55.524111
10.690000	55.524111
10.700000	55.524111
10.710000	55.524111
10.720000	55.524111
10.730000	55.524111
10.740000	55.524111
10.750000	55.524111
10.760000	55.524111
10.770000	55.524111
10.780000	55.524111
10.790000	55.524111
10.800000	55.524111
10.810000	55.524111
10.820000	55.524111
10.830000	55.524111
10.840000	55.524111
10.850000	55.524111
10.860000	55.524111
10.870000	55.524111
10.880000	55.524111
10.890000	55.524111
10.900000	55.524111
10.910000	55.524111
10.920000	55.524111
10.930000	55.524111
10.940000	55.524111
10.950000	55.524111
10.960000	55.524111
10.970000	55.524111
10.980000	55.524111
10.990000	55.524111
11.000000	54.945640
11.010000	54.945640
11.020000	54.945640
11.030000	54.945640
11.040000	54.945640
11.050000	54.945640
11.060000	54.945640
11.070000	54.945640
11.080000	54.945640
11.090000	54.945640
11.100000	54.945640
11.110000	54.945640
11.120000	54.945640
11.130000	54.945640
11.140000	54.945640
11.150000	54.945640
11.160000	54.945640
11.170000	54.945640
11.180000	54.945640
11.190000	54.945640
11.200000	54.945640
11.210000	54.945640
11.220000	54.945640
11.230000	54.945640
11.240000	54.945640
11.250000	54.945640
11.260000	54.945640
11.270000	54.945640
11.280000	54.945640
11.290000	54.945640
11.300000	54.945640
11.310000	54.945640
11.320000	54.945640
11.330000	54.945640
11.340000	54.945640
11.350000	54.945640
11.360000	54.945640
11.370000	54.945640
11.380000	54.945640
11.390000	54.945640
11.400000	54.945640
11.410000	54.945640
11.420000	54.945640
11.430000	54.945640
11.440000	54.945640
11.450000	54.945640
11.460000	54.945640
11.470000	54.945640
11.480000	54.945640
11.490000	54.945640
11.500000	54.341997
11.510000	54.341997
11.520000	54.341997
11.530000	54.341997
11.540000	54.341997
11.550000	54.341997
11.560000	54.341997
11.570000	54.341997
11.580000	54.341997
11.590000	54.341997
11.600000	54.341997
11.610000	54.341997
11.620000	54.341997
11.630000	54.341997
11.640000	54.341997
11.650000	54.341997
11.660000	54.341997
11.670000	54.341997
11.680000	54.341997
11.690000	54.341997
11.700000	54.341997
11.710000	54.341997
11.720000	54.341997
11.730000	54.341997
11.740000	54.341997
11.750000	54.341997
11.760000	54.341997
11.770000	54.341997
11.780000	54.341997
11.790000	54.341997
11.800000	54.341997
11.810000	54.341997
11.820000	54.341997
11.830000	54.341997
11.840000	54.341997
11.850000	54.341997
11.860000	54.341997
11.870000	54.341997
11.880000	54.341997
11.890000	54.341997
11.900000	54.341997
11.910000	54.341997
11.920000	54.341997
11.930000	54.341997
11.940000	54.341997
11.950000	54.341997
11.960000	54.341997
11.970000	54.341997
11.980000	54.341997
11.990000	54.341997
12.000000	53.721173
12.010000	53.721173
12.020000	53.721173
12.030000	53.721173
12.040000	53.721173
12.050000	53.721173
12.060000	53.721173
12.070000	53.721173
12.080000	53.721173
12.090000	53.721173
12.100000	53.721173
12.110000	53.721173
12.120000	53.721173
12.130000	53.721173
12.140000	53.721173
12.150000	53.721173
12.160000	53.721173
12.170000	53.721173
12.180000	53.721173
12.190000	53.721173
12.200000	53.721173
12.210000	53.721173
12.220000	53.721173
12.230000	53.721173
12.240000	53.721173
12.250000	53.721173
12.260000	53.721173
12.270000	53.721173
12.280000	53.721173
12.290000	53.721173
12.300000	53.721173
12.310000	53.721173
12.320000	53.721173
12.330000	53.721173
12.340000	53.721173
12.350000	53.721173
12.360000	53.721173
12.370000	53.721173
12.380000	53.721173
12.390000	53.721173
12.400000	53.721173
12.410000	53.721173
12.420000	53.721173
12.430000	53.721173
12.440000	53.721173
12.450000	53.721173
12.460000	53.721173
12.470000	53.721173
12.480000	53.721173
12.490000	53.721173
12.500000	53.110719
12.510000	53.110719
12.520000	53.110719
12.530000	53.110719
12.540000	53.110719
12.550000	53.110719
12.560000	53.110719
12.570000	53.110719
12.580000	53.110719
12.590000	53.110719
12.600000	53.110719
12.610000	53.110719
12.620000	53.110719
12.630000	53.110719
12.640000	53.110719
12.650000	53.110719
12.660000	53.110719
12.670000	53.110719
12.680000	53.110719
12.690000	53.110719
12.700000	53.110719
12.710000	53.110719
12.720000	53.110719
12.730000	53.110719
12.740000	53.110719
12.750000	53.110719
12.760000	53.110719
12.770000	53.110719
12.780000	53.110719
12.790000	53.110719
12.800000	53.110719
12.810000	53.110719
12.820000	53.110719
12.830000	53.110719
12.840000	53.110719
12.850000	53.110719
12.860000	53.110719
12.870000	53.110719
12.880000	53.110719
12.890000	53.110719
12.900000	53.110719
12.910000	53.110719
12.920000	53.110719
12.930000	53.110719
12.940000	53.110719
12.950000	53.110719
12.960000	53.110719
12.970000	53.110719
12.980000	53.110719
12.990000	53.110719
13.000000	52.497502
13.010000	52.497502
13.020000	52.497502
13.030000	52.497502
13.040000	52.497502
13.050000	52.497502
13.060000	52.497502
13.070000	52.497502
13.080000	52.497502
13.090000	52.497502
13.100000	52.497502
13.110000	52.497502
13.120000	52.497502
13.130000	52.497502
13.140000	52.497502
13.150000	52.497502
13.160000	52.497502
13.170000	52.497502
13.180000	52.497502
13.190000	52.497502
13.200000	52.497502
13.210000	52.497502
13.220000	52.497502
13.230000	52.497502
13.240000	52.497502
13.250000	52.497502
13.260000	52.497502
13.270000	52.497502
13.280000	52.497502
13.290000	52.497502
13.300000	52.497502
13.310000	52.497502
13.320000	52.497502
13.330000	52.497502
13.340000	52.497502
13.350000	52.497502
13.360000	52.497502
13.370000	52.497502
13.380000	52.497502
13.390000	52.497502
13.400000	52.497502
13.410000	52.497502
13.420000	52.497502
13.430000	52.497502
13.440000	52.497502
13.450000	52.497502
13.460000	52.497502
13.470000	52.497502
13.480000	52.497502
13.490000	52.497502
13.500000	51.882934
13.510000	51.882934
13.520000	51.882934
13.530000	51.882934
13.540000	51.882934
13.550000	51.882934
13.560000	51.882934
13.570000	51.882934
13.580000	51.882934
13.590000	51.882934
13.600000	51.882934
13.610000	51.882934
13.620000	51.882934
13.630000	51.882934
13.640000	51.882934
13.650000	51.882934
13.660000	51.882934
13.670000	51.882934
13.680000	51.882934
13.690000	51.882934
13.700000	51.882934
13.710000	51.882934
13.720000	51.882934
13.730000	51.882934
13.740000	51.882934
13.750000	51.882934
13.760000	51.882934
13.770000	51.882934
13.780000	51.882934
13.790000	51.882934
13.800000	51.882934
13.810000	51.882934
13.820000	51.882934
13.830000	51.882934
13.840000	51.882934
13.850000	51.882934
13.860000	51.882934
13.870000	51.882934
13.880000	51.882934
13.890000	51.882934
13.900000	51.882934
13.910000	51.882934
13.920000	51.882934
13.930000	51.882934
13.940000	51.882934
13.950000	51.882934
13.960000	51.882934
13.970000	51.882934
13.980000	51.882934
13.990000	51.882934
14.000000	51.275048
14.010000	51.275048
14.020000	51.275048
14.030000	51.275048
14.040000	51.275048
14.050000	51.275048
14.060000	51.275048
14.070000	51.275048
14.080000	51.275048
14.090000	51.275048
14.100000	51.275048
14.110000	51.275048
14.120000	51.275048
14.130000	51.275048
14.140000	51.275048
14.150000	51.275048
14.160000	51.275048
14.170000	51.275048
14.180000	51.275048
14.190000	51.275048
14.200000	51.275048
14.210000	51.275048
14.220000	51.275048
14.230000	51.275048
14.240000	51.275048
14.250000	51.275048
14.260000	51.275048
14.270000	51.275048
14.280000	51.275048
14.290000	51.275048
14.300000	51.275048
14.310000	51.275048
14.320000	51.275048
14.330000	51.275048
14.340000	51.275048
14.350000	51.275048
14.360000	51.275048
14.370000	51.275048
14.380000	51.275048
14.390000	51.275048
14.400000	51.275048
14.410000	51.275048
14.420000	51.275048
14.430000	51.275048
14.440000	51.275048
14.450000	51.275048
14.460000	51.275048
14.470000	51.275048
14.480000	51.275048
14.490000	51.275048
14.500000	50.672484
14.510000	50.672484
14.520000	50.672484
14.530000	50.672484
14.540000	50.672484
14.550000	50.672484
14.560000	50.672484
14.570000	50.672484
14.580000	50.672484
14.590000	50.672484
14.600000	50.672484
14.610000	50.672484
14.620000	50.672484
14.630000	50.672484
14.640000	50.672484
14.650000	50.672484
14.660000	50.672484
14.670000	50.672484
14.680000	50.672484
14.690000	50.672484
14.700000	50.672484
14.710000	50.672484
14.720000	50.672484
14.730000	50.672484
14.740000	50.672484
14.750000	50.672484
14.760000	50.672484
14.770000	50.672484
14.780000	50.672484
14.790000	50.672484
14.800000	50.672484
14.810000	50.672484
14.820000	50.672484
14.830000	50.672484
14.840000	50.672484
14.850000	50.672484
14.860000	50.672484
14.870000	50.672484
14.880000	50.672484
14.890000	50.672484
14.900000	50.672484
14.910000	50.672484
14.920000	50.672484
14.930000	50.672484
14.940000	50.672484
14.950000	50.672484
14.960000	50.672484
14.970000	50.672484
14.980000	50.672484
14.990000	50.672484
15.000000	50.089013
15.010000	50.089013
15.020000	50.089013
15.030000	50.089013
15.040000	50.089013
15.050000	50.089013
15.060000	50.089013
15.070000	50.089013
15.080000	50.089013
15.090000	50.089013
15.100000	50.089013
15.110000	50.089013
15.120000	50.089013
15.130000	50.089013
15.140000	50.089013
15.150000	50.089013
15.160000	50.089013
15.170000	50.089013
15.180000	50.089013
15.190000	50.089013
15.200000	50.089013
15.210000	50.089013
15.220000	50.089013
15.230000	50.089013
15.240000	50.089013
15.250000	50.089013
15.260000	50.089013
15.270000	50.089013
15.280000	50.089013
15.290000	50.089013
15.300000	50.089013
15.310000	50.089013
15.320000	50.089013
15.330000	50.089013
15.340000	50.089013
15.350000	50.089013
15.360000	50.089013
15.370000	50.089013
15.380000	50.089013
15.390000	50.089013
15.400000	50.089013
15.410000	50.089013
15.420000	50.089013
15.430000	50.089013
15.440000	50.089013
15.450000	50.089013
15.460000	50.089013
15.470000	50.089013
15.480000	50.089013
15.490000	50.089013
15.500000	49.510381
15.510000	49.510381
15.520000	49.510381
15.530000	49.510381
15.540000	49.510381
15.550000	49.510381
15.560000	49.510381
15.570000	49.510381
15.580000	49.510381
15.590000	49.510381
15.600000	49.510381
15.610000	49.510381
15.620000	49.510381
15.630000	49.510381
15.640000	49.510381
15.650000	49.510381
15.660000	49.510381
15.670000	49.510381
15.680000	49.510381
15.690000	49.510381
15.700000	49.510381
15.710000	49.510381
15.720000	49.510381
15.730000	49.510381
15.740000	49.510381
15.750000	49.510381
15.760000	49.510381
15.770000	49.510381
15.780000	49.510381
15.790000	49.510381
15.800000	49.510381
15.810000	49.510381
15.820000	49.510381
15.830000	49.510381
15.840000	49.510381
15.850000	49.510381
15.860000	49.510381
15.870000	49.510381
15.880000	49.510381
15.890000	49.510381
15.900000	49.510381
15.910000	49.510381
15.920000	49.510381
15.930000	49.510381
15.940000	49.510381
15.950000	49.510381
15.960000	49.510381
15.970000	49.510381
15.980000	49.510381
15.990000	49.510381
16.000000	48.944216
16.010000	48.944216
16.020000	48.944216
16.030000	48.944216
16.040000	48.944216
16.050000	48.944216
16.060000	48.944216
16.070000	48.944216
16.080000	48.944216
16.090000	48.944216
16.100000	48.944216
16.110000	48.944216
16.120000	48.944216
16.130000	48.944216
16.140000	48.944216
16.150000	48.944216
16.160000	48.944216
16.170000	48.944216
16.180000	48.944216
16.190000	48.944216
16.200000	48.944216
16.210000	48.944216
16.220000	48.944216
16.230000	48.944216
16.240000	48.944216
16.250000	48.944216
16.260000	48.944216
16.270000	48.944216
16.280000	48.944216
16.290000	48.944216
16.300000	48.944216
16.310000	48.944216
16.320000	48.944216
16.330000	48.944216
16.340000	48.944216
16.350000	48.944216
16.360000	48.944216
16.370000	48.944216
16.380000	48.944216
16.390000	48.944216
16.400000	48.944216
16.410000	48.944216
16.420000	48.944216
16.430000	48.944216
16.440000	48.944216
16.450000	48.944216
16.460000	48.944216
16.470000	48.944216
16.480000	48.944216
16.490000	48.944216
16.500000	48.397760
16.510000	48.397760
16.520000	48.397760
16.530000	48.397760
16.540000	48.397760
16.550000	48.397760
16.560000	48.397760
16.570000	48.397760
16.580000	48.397760
16.590000	48.397760
16.600000	48.397760
16.610000	48.397760
16.620000	48.397760
16.630000	48.397760
16.640000	48.397760
16.650000	48.397760
16.660000	48.397760
16.670000	48.397760
16.680000	48.397760
16.690000	48.397760
16.700000	48.397760
16.710000	48.397760
16.720000	48.397760
16.730000	48.397760
16.740000	48.397760
16.750000	48.397760
16.760000	48.397760
16.770000	48.397760
16.780000	48.397760
16.790000	48.397760
16.800000	48.397760
16.810000	48.397760
16.820000	48.397760
16.830000	48.397760
16.840000	48.397760
16.850000	48.397760
16.860000	48.397760
16.870000	48.397760
16.880000	48.397760
16.890000	48.397760
16.900000	48.397760
16.910000	48.397760
16.920000	48.397760
16.930000	48.397760
16.940000	48.397760
16.950000	48.397760
16.960000	48.397760
16.970000	48.397760
16.980000	48.397760
16.990000	48.397760
17.000000	47.855998
17.010000	47.855998
17.020000	47.855998
17.030000	47.855998
17.040000	47.855998
17.050000	47.855998
17.060000	47.855998
17.070000	47.855998
17.080000	47.855998
17.090000	47.855998
17.100000	47.855998
17.110000	47.855998
17.120000	47.855998
17.130000	47.855998
17.140000	47.855998
17.150000	47.855998
17.160000	47.855998
17.170000	47.855998
17.180000	47.855998
17.190000	47.855998
17.200000	47.855998
17.210000	47.855998
17.220000	47.855998
17.230000	47.855998
17.240000	47.855998
17.250000	47.855998
17.260000	47.855998
17.270000	47.855998
17.280000	47.855998
17.290000	47.855998
17.300000	47.855998
17.310000	47.855998
17.320000	47.855998
17.330000	47.855998
17.340000	47.855998
17.350000	47.855998
17.360000	47.855998
17.370000	47.855998
17.380000	47.855998
17.390000	47.855998
17.400000	47.855998
17.410000	47.855998
17.420000	47.855998
17.430000	47.855998
17.440000	47.855998
17.450000	47.855998
17.460000	47.855998
17.470000	47.855998
17.480000	47.855998
17.490000	47.855998
17.500000	47.332706
17.510000	47.332706
17.520000	47.332706
17.530000	47.332706
17.540000	47.332706
17.550000	47.332706
17.560000	47.332706
17.570000	47.332706
17.580000	47.332706
17.590000	47.332706
17.600000	47.332706
17.610000	47.332706
17.620000	47.332706
17.630000	47.332706
17.640000	47.332706
17.650000	47.332706
17.660000	47.332706
17.670000	47.332706
17.680000	47.332706
17.690000	47.332706
17.700000	47.332706
17.710000	47.332706
17.720000	47.332706
17.730000	47.332706
17.740000	47.332706
17.750000	47.332706
17.760000	47.332706
17.770000	47.332706
17.780000	47.332706
17.790000	47.332706
17.800000	47.332706
17.810000	47.332706
17.820000	47.332706
17.830000	47.332706
17.840000	47.332706
17.850000	47.332706
17.860000	47.332706
17.870000	47.332706
17.880000	47.332706
17.890000	47.332706
17.900000	47.332706
17.910000	47.332706
17.920000	47.332706
17.930000	47.332706
17.940000	47.332706
17.950000	47.332706
17.960000	47.332706
17.970000	47.332706
17.980000	47.332706
17.990000	47.332706
