LabVIEW Measurement	
Writer_Version	2
Reader_Version	2
Separator	Tab
Decimal_Separator	.
Multi_Headings	No
X_Columns	One
Time_Pref	Absolute
Operator	biomech-dyno
Date	2023/05/23
Time	16:26:31.1792034999998606061
***End_of_Header***	
	
Channels	1	
Samples	10	
Date	2023/05/23	
Time	16:31:43.5451801999996711055	
X_Dimension	Time	
X0	0.0000000000000000E+0	
Delta_X	0.010000	
***End_of_Header***		
X_Value	Untitled	Comment
0.000000	25.014688
0.010000	25.014688
0.020000	25.014688
0.030000	25.014688
0.040000	25.014688
0.050000	25.014688
0.060000	25.014688
0.070000	25.014688
0.080000	25.014688
0.090000	25.014688
0.100000	25.014688
0.110000	25.014688
0.120000	25.014688
0.130000	25.014688
0.140000	25.014688
0.150000	25.014688
0.160000	25.014688
0.170000	25.014688
0.180000	25.014688
0.190000	25.014688
0.200000	25.014688
0.210000	25.014688
0.220000	25.014688
0.230000	25.014688
0.240000	25.014688
0.250000	25.014688
0.260000	25.014688
0.270000	25.014688
0.280000	25.014688
0.290000	25.014688
0.300000	25.014688
0.310000	25.014688
0.320000	25.014688
0.330000	25.014688
0.340000	25.014688
0.350000	25.014688
0.360000	25.014688
0.370000	25.014688
0.380000	25.014688
0.390000	25.014688
0.400000	25.014688
0.410000	25.014688
0.420000	25.014688
0.430000	25.014688
0.440000	25.014688
0.450000	25.014688
0.460000	25.014688
0.470000	25.014688
0.480000	25.014688
0.490000	25.014688
0.500000	25.033751
0.510000	25.033751
0.520000	25.033751
0.530000	25.033751
0.540000	25.033751
0.550000	25.033751
0.560000	25.033751
0.570000	25.033751
0.580000	25.033751
0.590000	25.033751
0.600000	25.033751
0.610000	25.033751
0.620000	25.033751
0.630000	25.033751
0.640000	25.033751
0.650000	25.033751
0.660000	25.033751
0.670000	25.033751
0.680000	25.033751
0.690000	25.033751
0.700000	25.033751
0.710000	25.033751
0.720000	25.033751
0.730000	25.033751
0.740000	25.033751
0.750000	25.033751
0.760000	25.033751
0.770000	25.033751
0.780000	25.033751
0.790000	25.033751
0.800000	25.033751
0.810000	25.033751
0.820000	25.033751
0.830000	25.033751
0.840000	25.033751
0.850000	25.033751
0.860000	25.033751
0.870000	25.033751
0.880000	25.033751
0.890000	25.033751
0.900000	25.033751
0.910000	25.033751
0.920000	25.033751
0.930000	25.033751
0.940000	25.033751
0.950000	25.033751
0.960000	25.033751
0.970000	25.033751
0.980000	25.033751
0.990000	25.033751
1.000000	25.197811
1.010000	25.197811
1.020000	25.197811
1.030000	25.197811
1.040000	25.197811
1.050000	25.197811
1.060000	25.197811
1.070000	25.197811
1.080000	25.197811
1.090000	25.197811
1.100000	25.197811
1.110000	25.197811
1.120000	25.197811
1.130000	25.197811
1.140000	25.197811
1.150000	25.197811
1.160000	25.197811
1.170000	25.197811
1.180000	25.197811
1.190000	25.197811
1.200000	25.197811
1.210000	25.197811
1.220000	25.197811
1.230000	25.197811
1.240000	25.197811
1.250000	25.197811
1.260000	25.197811
1.270000	25.197811
1.280000	25.197811
1.290000	25.197811
1.300000	25.197811
1.310000	25.197811
1.320000	25.197811
1.330000	25.197811
1.340000	25.197811
1.350000	25.197811
1.360000	25.197811
1.370000	25.197811
1.380000	25.197811
1.390000	25.197811
1.400000	25.197811
1.410000	25.197811
1.420000	25.197811
1.430000	25.197811
1.440000	25.197811
1.450000	25.197811
1.460000	25.197811
1.470000	25.197811
1.480000	25.197811
1.490000	25.197811
1.500000	25.583375
1.510000	25.583375
1.520000	25.583375
1.530000	25.583375
1.540000	25.583375
1.550000	25.583375
1.560000	25.583375
1.570000	25.583375
1.580000	25.583375
1.590000	25.583375
1.600000	25.583375
1.610000	25.583375
1.620000	25.583375
1.630000	25.583375
1.640000	25.583375
1.650000	25.583375
1.660000	25.583375
1.670000	25.583375
1.680000	25.583375
1.690000	25.583375
1.700000	25.583375
1.710000	25.583375
1.720000	25.583375
1.730000	25.583375
1.740000	25.583375
1.750000	25.583375
1.760000	25.583375
1.770000	25.583375
1.780000	25.583375
1.790000	25.583375
1.800000	25.583375
1.810000	25.583375
1.820000	25.583375
1.830000	25.583375
1.840000	25.583375
1.850000	25.583375
1.860000	25.583375
1.870000	25.583375
1.880000	25.583375
1.890000	25.583375
1.900000	25.583375
1.910000	25.583375
1.920000	25.583375
1.930000	25.583375
1.940000	25.583375
1.950000	25.583375
1.960000	25.583375
1.970000	25.583375
1.980000	25.583375
1.990000	25.583375
2.000000	26.165332
2.010000	26.165332
2.020000	26.165332
2.030000	26.165332
2.040000	26.165332
2.050000	26.165332
2.060000	26.165332
2.070000	26.165332
2.080000	26.165332
2.090000	26.165332
2.100000	26.165332
2.110000	26.165332
2.120000	26.165332
2.130000	26.165332
2.140000	26.165332
2.150000	26.165332
2.160000	26.165332
2.170000	26.165332
2.180000	26.165332
2.190000	26.165332
2.200000	26.165332
2.210000	26.165332
2.220000	26.165332
2.230000	26.165332
2.240000	26.165332
2.250000	26.165332
2.260000	26.165332
2.270000	26.165332
2.280000	26.165332
2.290000	26.165332
2.300000	26.165332
2.310000	26.165332
2.320000	26.165332
2.330000	26.165332
2.340000	26.165332
2.350000	26.165332
2.360000	26.165332
2.370000	26.165332
2.380000	26.165332
2.390000	26.165332
2.400000	26.165332
2.410000	26.165332
2.420000	26.165332
2.430000	26.165332
2.440000	26.165332
2.450000	26.165332
2.460000	26.165332
2.470000	26.165332
2.480000	26.165332
2.490000	26.165332
2.500000	26.919085
2.510000	26.919085
2.520000	26.919085
2.530000	26.919085
2.540000	26.919085
2.550000	26.919085
2.560000	26.919085
2.570000	26.919085
2.580000	26.919085
2.590000	26.919085
2.600000	26.919085
2.610000	26.919085
2.620000	26.919085
2.630000	26.919085
2.640000	26.919085
2.650000	26.919085
2.660000	26.919085
2.670000	26.919085
2.680000	26.919085
2.690000	26.919085
2.700000	26.919085
2.710000	26.919085
2.720000	26.919085
2.730000	26.919085
2.740000	26.919085
2.750000	26.919085
2.760000	26.919085
2.770000	26.919085
2.780000	26.919085
2.790000	26.919085
2.800000	26.919085
2.810000	26.919085
2.820000	26.919085
2.830000	26.919085
2.840000	26.919085
2.850000	26.919085
2.860000	26.919085
2.870000	26.919085
2.880000	26.919085
2.890000	26.919085
2.900000	26.919085
2.910000	26.919085
2.920000	26.919085
2.930000	26.919085
2.940000	26.919085
2.950000	26.919085
2.960000	26.919085
2.970000	26.919085
2.980000	26.919085
2.990000	26.919085
3.000000	27.822166
3.010000	27.822166
3.020000	27.822166
3.030000	27.822166
3.040000	27.822166
3.050000	27.822166
3.060000	27.822166
3.070000	27.822166
3.080000	27.822166
3.090000	27.822166
3.100000	27.822166
3.110000	27.822166
3.120000	27.822166
3.130000	27.822166
3.140000	27.822166
3.150000	27.822166
3.160000	27.822166
3.170000	27.822166
3.180000	27.822166
3.190000	27.822166
3.200000	27.822166
3.210000	27.822166
3.220000	27.822166
3.230000	27.822166
3.240000	27.822166
3.250000	27.822166
3.260000	27.822166
3.270000	27.822166
3.280000	27.822166
3.290000	27.822166
3.300000	27.822166
3.310000	27.822166
3.320000	27.822166
3.330000	27.822166
3.340000	27.822166
3.350000	27.822166
3.360000	27.822166
3.370000	27.822166
3.380000	27.822166
3.390000	27.822166
3.400000	27.822166
3.410000	27.822166
3.420000	27.822166
3.430000	27.822166
3.440000	27.822166
3.450000	27.822166
3.460000	27.822166
3.470000	27.822166
3.480000	27.822166
3.490000	27.822166
3.500000	28.781286
3.510000	28.781286
3.520000	28.781286
3.530000	28.781286
3.540000	28.781286
3.550000	28.781286
3.560000	28.781286
3.570000	28.781286
3.580000	28.781286
3.590000	28.781286
3.600000	28.781286
3.610000	28.781286
3.620000	28.781286
3.630000	28.781286
3.640000	28.781286
3.650000	28.781286
3.660000	28.781286
3.670000	28.781286
3.680000	28.781286
3.690000	28.781286
3.700000	28.781286
3.710000	28.781286
3.720000	28.781286
3.730000	28.781286
3.740000	28.781286
3.750000	28.781286
3.760000	28.781286
3.770000	28.781286
3.780000	28.781286
3.790000	28.781286
3.800000	28.781286
3.810000	28.781286
3.820000	28.781286
3.830000	28.781286
3.840000	28.781286
3.850000	28.781286
3.860000	28.781286
3.870000	28.781286
3.880000	28.781286
3.890000	28.781286
3.900000	28.781286
3.910000	28.781286
3.920000	28.781286
3.930000	28.781286
3.940000	28.781286
3.950000	28.781286
3.960000	28.781286
3.970000	28.781286
3.980000	28.781286
3.990000	28.781286
4.000000	29.554082
4.010000	29.554082
4.020000	29.554082
4.030000	29.554082
4.040000	29.554082
4.050000	29.554082
4.060000	29.554082
4.070000	29.554082
4.080000	29.554082
4.090000	29.554082
4.100000	29.554082
4.110000	29.554082
4.120000	29.554082
4.130000	29.554082
4.140000	29.554082
4.150000	29.554082
4.160000	29.554082
4.170000	29.554082
4.180000	29.554082
4.190000	29.554082
4.200000	29.554082
4.210000	29.554082
4.220000	29.554082
4.230000	29.554082
4.240000	29.554082
4.250000	29.554082
4.260000	29.554082
4.270000	29.554082
4.280000	29.554082
4.290000	29.554082
4.300000	29.554082
4.310000	29.554082
4.320000	29.554082
4.330000	29.554082
4.340000	29.554082
4.350000	29.554082
4.360000	29.554082
4.370000	29.554082
4.380000	29.554082
4.390000	29.554082
4.400000	29.554082
4.410000	29.554082
4.420000	29.554082
4.430000	29.554082
4.440000	29.554082
4.450000	29.554082
4.460000	29.554082
4.470000	29.554082
4.480000	29.554082
4.490000	29.554082
4.500000	30.113542
4.510000	30.113542
4.520000	30.113542
4.530000	30.113542
4.540000	30.113542
4.550000	30.113542
4.560000	30.113542
4.570000	30.113542
4.580000	30.113542
4.590000	30.113542
4.600000	30.113542
4.610000	30.113542
4.620000	30.113542
4.630000	30.113542
4.640000	30.113542
4.650000	30.113542
4.660000	30.113542
4.670000	30.113542
4.680000	30.113542
4.690000	30.113542
4.700000	30.113542
4.710000	30.113542
4.720000	30.113542
4.730000	30.113542
4.740000	30.113542
4.750000	30.113542
4.760000	30.113542
4.770000	30.113542
4.780000	30.113542
4.790000	30.113542
4.800000	30.113542
4.810000	30.113542
4.820000	30.113542
4.830000	30.113542
4.840000	30.113542
4.850000	30.113542
4.860000	30.113542
4.870000	30.113542
4.880000	30.113542
4.890000	30.113542
4.900000	30.113542
4.910000	30.113542
4.920000	30.113542
4.930000	30.113542
4.940000	30.113542
4.950000	30.113542
4.960000	30.113542
4.970000	30.113542
4.980000	30.113542
4.990000	30.113542
5.000000	30.507915
5.010000	30.507915
5.020000	30.507915
5.030000	30.507915
5.040000	30.507915
5.050000	30.507915
5.060000	30.507915
5.070000	30.507915
5.080000	30.507915
5.090000	30.507915
5.100000	30.507915
5.110000	30.507915
5.120000	30.507915
5.130000	30.507915
5.140000	30.507915
5.150000	30.507915
5.160000	30.507915
5.170000	30.507915
5.180000	30.507915
5.190000	30.507915
5.200000	30.507915
5.210000	30.507915
5.220000	30.507915
5.230000	30.507915
5.240000	30.507915
5.250000	30.507915
5.260000	30.507915
5.270000	30.507915
5.280000	30.507915
5.290000	30.507915
5.300000	30.507915
5.310000	30.507915
5.320000	30.507915
5.330000	30.507915
5.340000	30.507915
5.350000	30.507915
5.360000	30.507915
5.370000	30.507915
5.380000	30.507915
5.390000	30.507915
5.400000	30.507915
5.410000	30.507915
5.420000	30.507915
5.430000	30.507915
5.440000	30.507915
5.450000	30.507915
5.460000	30.507915
5.470000	30.507915
5.480000	30.507915
5.490000	30.507915
5.500000	30.772425
5.510000	30.772425
5.520000	30.772425
5.530000	30.772425
5.540000	30.772425
5.550000	30.772425
5.560000	30.772425
5.570000	30.772425
5.580000	30.772425
5.590000	30.772425
5.600000	30.772425
5.610000	30.772425
5.620000	30.772425
5.630000	30.772425
5.640000	30.772425
5.650000	30.772425
5.660000	30.772425
5.670000	30.772425
5.680000	30.772425
5.690000	30.772425
5.700000	30.772425
5.710000	30.772425
5.720000	30.772425
5.730000	30.772425
5.740000	30.772425
5.750000	30.772425
5.760000	30.772425
5.770000	30.772425
5.780000	30.772425
5.790000	30.772425
5.800000	30.772425
5.810000	30.772425
5.820000	30.772425
5.830000	30.772425
5.840000	30.772425
5.850000	30.772425
5.860000	30.772425
5.870000	30.772425
5.880000	30.772425
5.890000	30.772425
5.900000	30.772425
5.910000	30.772425
5.920000	30.772425
5.930000	30.772425
5.940000	30.772425
5.950000	30.772425
5.960000	30.772425
5.970000	30.772425
5.980000	30.772425
5.990000	30.772425
6.000000	30.938560
6.010000	30.938560
6.020000	30.938560
6.030000	30.938560
6.040000	30.938560
6.050000	30.938560
6.060000	30.938560
6.070000	30.938560
6.080000	30.938560
6.090000	30.938560
6.100000	30.938560
6.110000	30.938560
6.120000	30.938560
6.130000	30.938560
6.140000	30.938560
6.150000	30.938560
6.160000	30.938560
6.170000	30.938560
6.180000	30.938560
6.190000	30.938560
6.200000	30.938560
6.210000	30.938560
6.220000	30.938560
6.230000	30.938560
6.240000	30.938560
6.250000	30.938560
6.260000	30.938560
6.270000	30.938560
6.280000	30.938560
6.290000	30.938560
6.300000	30.938560
6.310000	30.938560
6.320000	30.938560
6.330000	30.938560
6.340000	30.938560
6.350000	30.938560
6.360000	30.938560
6.370000	30.938560
6.380000	30.938560
6.390000	30.938560
6.400000	30.938560
6.410000	30.938560
6.420000	30.938560
6.430000	30.938560
6.440000	30.938560
6.450000	30.938560
6.460000	30.938560
6.470000	30.938560
6.480000	30.938560
6.490000	30.938560
6.500000	31.031611
6.510000	31.031611
6.520000	31.031611
6.530000	31.031611
6.540000	31.031611
6.550000	31.031611
6.560000	31.031611
6.570000	31.031611
6.580000	31.031611
6.590000	31.031611
6.600000	31.031611
6.610000	31.031611
6.620000	31.031611
6.630000	31.031611
6.640000	31.031611
6.650000	31.031611
6.660000	31.031611
6.670000	31.031611
6.680000	31.031611
6.690000	31.031611
6.700000	31.031611
6.710000	31.031611
6.720000	31.031611
6.730000	31.031611
6.740000	31.031611
6.750000	31.031611
6.760000	31.031611
6.770000	31.031611
6.780000	31.031611
6.790000	31.031611
6.800000	31.031611
6.810000	31.031611
6.820000	31.031611
6.830000	31.031611
6.840000	31.031611
6.850000	31.031611
6.860000	31.031611
6.870000	31.031611
6.880000	31.031611
6.890000	31.031611
6.900000	31.031611
6.910000	31.031611
6.920000	31.031611
6.930000	31.031611
6.940000	31.031611
6.950000	31.031611
6.960000	31.031611
6.970000	31.031611
6.980000	31.031611
6.990000	31.031611
7.000000	31.070258
7.010000	31.070258
7.020000	31.070258
7.030000	31.070258
7.040000	31.070258
7.050000	31.070258
7.060000	31.070258
7.070000	31.070258
7.080000	31.070258
7.090000	31.070258
7.100000	31.070258
7.110000	31.070258
7.120000	31.070258
7.130000	31.070258
7.140000	31.070258
7.150000	31.070258
7.160000	31.070258
7.170000	31.070258
7.180000	31.070258
7.190000	31.070258
7.200000	31.070258
7.210000	31.070258
7.220000	31.070258
7.230000	31.070258
7.240000	31.070258
7.250000	31.070258
7.260000	31.070258
7.270000	31.070258
7.280000	31.070258
7.290000	31.070258
7.300000	31.070258
7.310000	31.070258
7.320000	31.070258
7.330000	31.070258
7.340000	31.070258
7.350000	31.070258
7.360000	31.070258
7.370000	31.070258
7.380000	31.070258
7.390000	31.070258
7.400000	31.070258
7.410000	31.070258
7.420000	31.070258
7.430000	31.070258
7.440000	31.070258
7.450000	31.070258
7.460000	31.070258
7.470000	31.070258
7.480000	31.070258
7.490000	31.070258
7.500000	31.071013
7.510000	31.071013
7.520000	31.071013
7.530000	31.071013
7.540000	31.071013
7.550000	31.071013
7.560000	31.071013
7.570000	31.071013
7.580000	31.071013
7.590000	31.071013
7.600000	31.071013
7.610000	31.071013
7.620000	31.071013
7.630000	31.071013
7.640000	31.071013
7.650000	31.071013
7.660000	31.071013
7.670000	31.071013
7.680000	31.071013
7.690000	31.071013
7.700000	31.071013
7.710000	31.071013
7.720000	31.071013
7.730000	31.071013
7.740000	31.071013
7.750000	31.071013
7.760000	31.071013
7.770000	31.071013
7.780000	31.071013
7.790000	31.071013
7.800000	31.071013
7.810000	31.071013
7.820000	31.071013
7.830000	31.071013
7.840000	31.071013
7.850000	31.071013
7.860000	31.071013
7.870000	31.071013
7.880000	31.071013
7.890000	31.071013
7.900000	31.071013
7.910000	31.071013
7.920000	31.071013
7.930000	31.071013
7.940000	31.071013
7.950000	31.071013
7.960000	31.071013
7.970000	31.071013
7.980000	31.071013
7.990000	31.071013
8.000000	31.042760
8.010000	31.042760
8.020000	31.042760
8.030000	31.042760
8.040000	31.042760
8.050000	31.042760
8.060000	31.042760
8.070000	31.042760
8.080000	31.042760
8.090000	31.042760
8.100000	31.042760
8.110000	31.042760
8.120000	31.042760
8.130000	31.042760
8.140000	31.042760
8.150000	31.042760
8.160000	31.042760
8.170000	31.042760
8.180000	31.042760
8.190000	31.042760
8.200000	31.042760
8.210000	31.042760
8.220000	31.042760
8.230000	31.042760
8.240000	31.042760
8.250000	31.042760
8.260000	31.042760
8.270000	31.042760
8.280000	31.042760
8.290000	31.042760
8.300000	31.042760
8.310000	31.042760
8.320000	31.042760
8.330000	31.042760
8.340000	31.042760
8.350000	31.042760
8.360000	31.042760
8.370000	31.042760
8.380000	31.042760
8.390000	31.042760
8.400000	31.042760
8.410000	31.042760
8.420000	31.042760
8.430000	31.042760
8.440000	31.042760
8.450000	31.042760
8.460000	31.042760
8.470000	31.042760
8.480000	31.042760
8.490000	31.042760
8.500000	30.991481
8.510000	30.991481
8.520000	30.991481
8.530000	30.991481
8.540000	30.991481
8.550000	30.991481
8.560000	30.991481
8.570000	30.991481
8.580000	30.991481
8.590000	30.991481
8.600000	30.991481
8.610000	30.991481
8.620000	30.991481
8.630000	30.991481
8.640000	30.991481
8.650000	30.991481
8.660000	30.991481
8.670000	30.991481
8.680000	30.991481
8.690000	30.991481
8.700000	30.991481
8.710000	30.991481
8.720000	30.991481
8.730000	30.991481
8.740000	30.991481
8.750000	30.991481
8.760000	30.991481
8.770000	30.991481
8.780000	30.991481
8.790000	30.991481
8.800000	30.991481
8.810000	30.991481
8.820000	30.991481
8.830000	30.991481
8.840000	30.991481
8.850000	30.991481
8.860000	30.991481
8.870000	30.991481
8.880000	30.991481
8.890000	30.991481
8.900000	30.991481
8.910000	30.991481
8.920000	30.991481
8.930000	30.991481
8.940000	30.991481
8.950000	30.991481
8.960000	30.991481
8.970000	30.991481
8.980000	30.991481
8.990000	30.991481
9.000000	30.922701
9.010000	30.922701
9.020000	30.922701
9.030000	30.922701
9.040000	30.922701
9.050000	30.922701
9.060000	30.922701
9.070000	30.922701
9.080000	30.922701
9.090000	30.922701
9.100000	30.922701
9.110000	30.922701
9.120000	30.922701
9.130000	30.922701
9.140000	30.922701
9.150000	30.922701
9.160000	30.922701
9.170000	30.922701
9.180000	30.922701
9.190000	30.922701
9.200000	30.922701
9.210000	30.922701
9.220000	30.922701
9.230000	30.922701
9.240000	30.922701
9.250000	30.922701
9.260000	30.922701
9.270000	30.922701
9.280000	30.922701
9.290000	30.922701
9.300000	30.922701
9.310000	30.922701
9.320000	30.922701
9.330000	30.922701
9.340000	30.922701
9.350000	30.922701
9.360000	30.922701
9.370000	30.922701
9.380000	30.922701
9.390000	30.922701
9.400000	30.922701
9.410000	30.922701
9.420000	30.922701
9.430000	30.922701
9.440000	30.922701
9.450000	30.922701
9.460000	30.922701
9.470000	30.922701
9.480000	30.922701
9.490000	30.922701
9.500000	30.844850
9.510000	30.844850
9.520000	30.844850
9.530000	30.844850
9.540000	30.844850
9.550000	30.844850
9.560000	30.844850
9.570000	30.844850
9.580000	30.844850
9.590000	30.844850
9.600000	30.844850
9.610000	30.844850
9.620000	30.844850
9.630000	30.844850
9.640000	30.844850
9.650000	30.844850
9.660000	30.844850
9.670000	30.844850
9.680000	30.844850
9.690000	30.844850
9.700000	30.844850
9.710000	30.844850
9.720000	30.844850
9.730000	30.844850
9.740000	30.844850
9.750000	30.844850
9.760000	30.844850
9.770000	30.844850
9.780000	30.844850
9.790000	30.844850
9.800000	30.844850
9.810000	30.844850
9.820000	30.844850
9.830000	30.844850
9.840000	30.844850
9.850000	30.844850
9.860000	30.844850
9.870000	30.844850
9.880000	30.844850
9.890000	30.844850
9.900000	30.844850
9.910000	30.844850
9.920000	30.844850
9.930000	30.844850
9.940000	30.844850
9.950000	30.844850
9.960000	30.844850
9.970000	30.844850
9.980000	30.844850
9.990000	30.844850
10.000000	30.754538
10.010000	30.754538
10.020000	30.754538
10.030000	30.754538
10.040000	30.754538
10.050000	30.754538
10.060000	30.754538
10.070000	30.754538
10.080000	30.754538
10.090000	30.754538
10.100000	30.754538
10.110000	30.754538
10.120000	30.754538
10.130000	30.754538
10.140000	30.754538
10.150000	30.754538
10.160000	30.754538
10.170000	30.754538
10.180000	30.754538
10.190000	30.754538
10.200000	30.754538
10.210000	30.754538
10.220000	30.754538
10.230000	30.754538
10.240000	30.754538
10.250000	30.754538
10.260000	30.754538
10.270000	30.754538
10.280000	30.754538
10.290000	30.754538
10.300000	30.754538
10.310000	30.754538
10.320000	30.754538
10.330000	30.754538
10.340000	30.754538
10.350000	30.754538
10.360000	30.754538
10.370000	30.754538
10.380000	30.754538
10.390000	30.754538
10.400000	30.754538
10.410000	30.754538
10.420000	30.754538
10.430000	30.754538
10.440000	30.754538
10.450000	30.754538
10.460000	30.754538
10.470000	30.754538
10.480000	30.754538
10.490000	30.754538
10.500000	30.659892
10.510000	30.659892
10.520000	30.659892
10.530000	30.659892
10.540000	30.659892
10.550000	30.659892
10.560000	30.659892
10.570000	30.659892
10.580000	30.659892
10.590000	30.659892
10.600000	30.659892
10.610000	30.659892
10.620000	30.659892
10.630000	30.659892
10.640000	30.659892
10.650000	30.659892
10.660000	30.659892
10.670000	30.659892
10.680000	30.659892
10.690000	30.659892
10.700000	30.659892
10.710000	30.659892
10.720000	30.659892
10.730000	30.659892
10.740000	30.659892
10.750000	30.659892
10.760000	30.659892
10.770000	30.659892
10.780000	30.659892
10.790000	30.659892
10.800000	30.659892
10.810000	30.659892
10.820000	30.659892
10.830000	30.659892
10.840000	30.659892
10.850000	30.659892
10.860000	30.659892
10.870000	30.659892
10.880000	30.659892
10.890000	30.659892
10.900000	30.659892
10.910000	30.659892
10.920000	30.659892
10.930000	30.659892
10.940000	30.659892
10.950000	30.659892
10.960000	30.659892
10.970000	30.659892
10.980000	30.659892
10.990000	30.659892
11.000000	30.559523
11.010000	30.559523
11.020000	30.559523
11.030000	30.559523
11.040000	30.559523
11.050000	30.559523
11.060000	30.559523
11.070000	30.559523
11.080000	30.559523
11.090000	30.559523
11.100000	30.559523
11.110000	30.559523
11.120000	30.559523
11.130000	30.559523
11.140000	30.559523
11.150000	30.559523
11.160000	30.559523
11.170000	30.559523
11.180000	30.559523
11.190000	30.559523
11.200000	30.559523
11.210000	30.559523
11.220000	30.559523
11.230000	30.559523
11.240000	30.559523
11.250000	30.559523
11.260000	30.559523
11.270000	30.559523
11.280000	30.559523
11.290000	30.559523
11.300000	30.559523
11.310000	30.559523
11.320000	30.559523
11.330000	30.559523
11.340000	30.559523
11.350000	30.559523
11.360000	30.559523
11.370000	30.559523
11.380000	30.559523
11.390000	30.559523
11.400000	30.559523
11.410000	30.559523
11.420000	30.559523
11.430000	30.559523
11.440000	30.559523
11.450000	30.559523
11.460000	30.559523
11.470000	30.559523
11.480000	30.559523
11.490000	30.559523
11.500000	30.458217
11.510000	30.458217
11.520000	30.458217
11.530000	30.458217
11.540000	30.458217
11.550000	30.458217
11.560000	30.458217
11.570000	30.458217
11.580000	30.458217
11.590000	30.458217
11.600000	30.458217
11.610000	30.458217
11.620000	30.458217
11.630000	30.458217
11.640000	30.458217
11.650000	30.458217
11.660000	30.458217
11.670000	30.458217
11.680000	30.458217
11.690000	30.458217
11.700000	30.458217
11.710000	30.458217
11.720000	30.458217
11.730000	30.458217
11.740000	30.458217
11.750000	30.458217
11.760000	30.458217
11.770000	30.458217
11.780000	30.458217
11.790000	30.458217
11.800000	30.458217
11.810000	30.458217
11.820000	30.458217
11.830000	30.458217
11.840000	30.458217
11.850000	30.458217
11.860000	30.458217
11.870000	30.458217
11.880000	30.458217
11.890000	30.458217
11.900000	30.458217
11.910000	30.458217
11.920000	30.458217
11.930000	30.458217
11.940000	30.458217
11.950000	30.458217
11.960000	30.458217
11.970000	30.458217
11.980000	30.458217
11.990000	30.458217
12.000000	30.355639
12.010000	30.355639
12.020000	30.355639
12.030000	30.355639
12.040000	30.355639
12.050000	30.355639
12.060000	30.355639
12.070000	30.355639
12.080000	30.355639
12.090000	30.355639
12.100000	30.355639
12.110000	30.355639
12.120000	30.355639
12.130000	30.355639
12.140000	30.355639
12.150000	30.355639
12.160000	30.355639
12.170000	30.355639
12.180000	30.355639
12.190000	30.355639
12.200000	30.355639
12.210000	30.355639
12.220000	30.355639
12.230000	30.355639
12.240000	30.355639
12.250000	30.355639
12.260000	30.355639
12.270000	30.355639
12.280000	30.355639
12.290000	30.355639
12.300000	30.355639
12.310000	30.355639
12.320000	30.355639
12.330000	30.355639
12.340000	30.355639
12.350000	30.355639
12.360000	30.355639
12.370000	30.355639
12.380000	30.355639
12.390000	30.355639
12.400000	30.355639
12.410000	30.355639
12.420000	30.355639
12.430000	30.355639
12.440000	30.355639
12.450000	30.355639
12.460000	30.355639
12.470000	30.355639
12.480000	30.355639
12.490000	30.355639
12.500000	30.250860
12.510000	30.250860
12.520000	30.250860
12.530000	30.250860
12.540000	30.250860
12.550000	30.250860
12.560000	30.250860
12.570000	30.250860
12.580000	30.250860
12.590000	30.250860
12.600000	30.250860
12.610000	30.250860
12.620000	30.250860
12.630000	30.250860
12.640000	30.250860
12.650000	30.250860
12.660000	30.250860
12.670000	30.250860
12.680000	30.250860
12.690000	30.250860
12.700000	30.250860
12.710000	30.250860
12.720000	30.250860
12.730000	30.250860
12.740000	30.250860
12.750000	30.250860
12.760000	30.250860
12.770000	30.250860
12.780000	30.250860
12.790000	30.250860
12.800000	30.250860
12.810000	30.250860
12.820000	30.250860
12.830000	30.250860
12.840000	30.250860
12.850000	30.250860
12.860000	30.250860
12.870000	30.250860
12.880000	30.250860
12.890000	30.250860
12.900000	30.250860
12.910000	30.250860
12.920000	30.250860
12.930000	30.250860
12.940000	30.250860
12.950000	30.250860
12.960000	30.250860
12.970000	30.250860
12.980000	30.250860
12.990000	30.250860
13.000000	30.150102
13.010000	30.150102
13.020000	30.150102
13.030000	30.150102
13.040000	30.150102
13.050000	30.150102
13.060000	30.150102
13.070000	30.150102
13.080000	30.150102
13.090000	30.150102
13.100000	30.150102
13.110000	30.150102
13.120000	30.150102
13.130000	30.150102
13.140000	30.150102
13.150000	30.150102
13.160000	30.150102
13.170000	30.150102
13.180000	30.150102
13.190000	30.150102
13.200000	30.150102
13.210000	30.150102
13.220000	30.150102
13.230000	30.150102
13.240000	30.150102
13.250000	30.150102
13.260000	30.150102
13.270000	30.150102
13.280000	30.150102
13.290000	30.150102
13.300000	30.150102
13.310000	30.150102
13.320000	30.150102
13.330000	30.150102
13.340000	30.150102
13.350000	30.150102
13.360000	30.150102
13.370000	30.150102
13.380000	30.150102
13.390000	30.150102
13.400000	30.150102
13.410000	30.150102
13.420000	30.150102
13.430000	30.150102
13.440000	30.150102
13.450000	30.150102
13.460000	30.150102
13.470000	30.150102
13.480000	30.150102
13.490000	30.150102
13.500000	30.044905
13.510000	30.044905
13.520000	30.044905
13.530000	30.044905
13.540000	30.044905
13.550000	30.044905
13.560000	30.044905
13.570000	30.044905
13.580000	30.044905
13.590000	30.044905
13.600000	30.044905
13.610000	30.044905
13.620000	30.044905
13.630000	30.044905
13.640000	30.044905
13.650000	30.044905
13.660000	30.044905
13.670000	30.044905
13.680000	30.044905
13.690000	30.044905
13.700000	30.044905
13.710000	30.044905
13.720000	30.044905
13.730000	30.044905
13.740000	30.044905
13.750000	30.044905
13.760000	30.044905
13.770000	30.044905
13.780000	30.044905
13.790000	30.044905
13.800000	30.044905
13.810000	30.044905
13.820000	30.044905
13.830000	30.044905
13.840000	30.044905
13.850000	30.044905
13.860000	30.044905
13.870000	30.044905
13.880000	30.044905
13.890000	30.044905
13.900000	30.044905
13.910000	30.044905
13.920000	30.044905
13.930000	30.044905
13.940000	30.044905
13.950000	30.044905
13.960000	30.044905
13.970000	30.044905
13.980000	30.044905
13.990000	30.044905
14.000000	29.943103
14.010000	29.943103
14.020000	29.943103
14.030000	29.943103
14.040000	29.943103
14.050000	29.943103
14.060000	29.943103
14.070000	29.943103
14.080000	29.943103
14.090000	29.943103
14.100000	29.943103
14.110000	29.943103
14.120000	29.943103
14.130000	29.943103
14.140000	29.943103
14.150000	29.943103
14.160000	29.943103
14.170000	29.943103
14.180000	29.943103
14.190000	29.943103
14.200000	29.943103
14.210000	29.943103
14.220000	29.943103
14.230000	29.943103
14.240000	29.943103
14.250000	29.943103
14.260000	29.943103
14.270000	29.943103
14.280000	29.943103
14.290000	29.943103
14.300000	29.943103
14.310000	29.943103
14.320000	29.943103
14.330000	29.943103
14.340000	29.943103
14.350000	29.943103
14.360000	29.943103
14.370000	29.943103
14.380000	29.943103
14.390000	29.943103
14.400000	29.943103
14.410000	29.943103
14.420000	29.943103
14.430000	29.943103
14.440000	29.943103
14.450000	29.943103
14.460000	29.943103
14.470000	29.943103
14.480000	29.943103
14.490000	29.943103
14.500000	29.841793
14.510000	29.841793
14.520000	29.841793
14.530000	29.841793
14.540000	29.841793
14.550000	29.841793
14.560000	29.841793
14.570000	29.841793
14.580000	29.841793
14.590000	29.841793
14.600000	29.841793
14.610000	29.841793
14.620000	29.841793
14.630000	29.841793
14.640000	29.841793
14.650000	29.841793
14.660000	29.841793
14.670000	29.841793
14.680000	29.841793
14.690000	29.841793
14.700000	29.841793
14.710000	29.841793
14.720000	29.841793
14.730000	29.841793
14.740000	29.841793
14.750000	29.841793
14.760000	29.841793
14.770000	29.841793
14.780000	29.841793
14.790000	29.841793
14.800000	29.841793
14.810000	29.841793
14.820000	29.841793
14.830000	29.841793
14.840000	29.841793
14.850000	29.841793
14.860000	29.841793
14.870000	29.841793
14.880000	29.841793
14.890000	29.841793
14.900000	29.841793
14.910000	29.841793
14.920000	29.841793
14.930000	29.841793
14.940000	29.841793
14.950000	29.841793
14.960000	29.841793
14.970000	29.841793
14.980000	29.841793
14.990000	29.841793
15.000000	29.742003
15.010000	29.742003
15.020000	29.742003
15.030000	29.742003
15.040000	29.742003
15.050000	29.742003
15.060000	29.742003
15.070000	29.742003
15.080000	29.742003
15.090000	29.742003
15.100000	29.742003
15.110000	29.742003
15.120000	29.742003
15.130000	29.742003
15.140000	29.742003
15.150000	29.742003
15.160000	29.742003
15.170000	29.742003
15.180000	29.742003
15.190000	29.742003
15.200000	29.742003
15.210000	29.742003
15.220000	29.742003
15.230000	29.742003
15.240000	29.742003
15.250000	29.742003
15.260000	29.742003
15.270000	29.742003
15.280000	29.742003
15.290000	29.742003
15.300000	29.742003
15.310000	29.742003
15.320000	29.742003
15.330000	29.742003
15.340000	29.742003
15.350000	29.742003
15.360000	29.742003
15.370000	29.742003
15.380000	29.742003
15.390000	29.742003
15.400000	29.742003
15.410000	29.742003
15.420000	29.742003
15.430000	29.742003
15.440000	29.742003
15.450000	29.742003
15.460000	29.742003
15.470000	29.742003
15.480000	29.742003
15.490000	29.742003
15.500000	29.642824
15.510000	29.642824
15.520000	29.642824
15.530000	29.642824
15.540000	29.642824
15.550000	29.642824
15.560000	29.642824
15.570000	29.642824
15.580000	29.642824
15.590000	29.642824
15.600000	29.642824
15.610000	29.642824
15.620000	29.642824
15.630000	29.642824
15.640000	29.642824
15.650000	29.642824
15.660000	29.642824
15.670000	29.642824
15.680000	29.642824
15.690000	29.642824
15.700000	29.642824
15.710000	29.642824
15.720000	29.642824
15.730000	29.642824
15.740000	29.642824
15.750000	29.642824
15.760000	29.642824
15.770000	29.642824
15.780000	29.642824
15.790000	29.642824
15.800000	29.642824
15.810000	29.642824
15.820000	29.642824
15.830000	29.642824
15.840000	29.642824
15.850000	29.642824
15.860000	29.642824
15.870000	29.642824
15.880000	29.642824
15.890000	29.642824
15.900000	29.642824
15.910000	29.642824
15.920000	29.642824
15.930000	29.642824
15.940000	29.642824
15.950000	29.642824
15.960000	29.642824
15.970000	29.642824
15.980000	29.642824
15.990000	29.642824
16.000000	29.547002
16.010000	29.547002
16.020000	29.547002
16.030000	29.547002
16.040000	29.547002
16.050000	29.547002
16.060000	29.547002
16.070000	29.547002
16.080000	29.547002
16.090000	29.547002
16.100000	29.547002
16.110000	29.547002
16.120000	29.547002
16.130000	29.547002
16.140000	29.547002
16.150000	29.547002
16.160000	29.547002
16.170000	29.547002
16.180000	29.547002
16.190000	29.547002
16.200000	29.547002
16.210000	29.547002
16.220000	29.547002
16.230000	29.547002
16.240000	29.547002
16.250000	29.547002
16.260000	29.547002
16.270000	29.547002
16.280000	29.547002
16.290000	29.547002
16.300000	29.547002
16.310000	29.547002
16.320000	29.547002
16.330000	29.547002
16.340000	29.547002
16.350000	29.547002
16.360000	29.547002
16.370000	29.547002
16.380000	29.547002
16.390000	29.547002
16.400000	29.547002
16.410000	29.547002
16.420000	29.547002
16.430000	29.547002
16.440000	29.547002
16.450000	29.547002
16.460000	29.547002
16.470000	29.547002
16.480000	29.547002
16.490000	29.547002
16.500000	29.451314
16.510000	29.451314
16.520000	29.451314
16.530000	29.451314
16.540000	29.451314
16.550000	29.451314
16.560000	29.451314
16.570000	29.451314
16.580000	29.451314
16.590000	29.451314
16.600000	29.451314
16.610000	29.451314
16.620000	29.451314
16.630000	29.451314
16.640000	29.451314
16.650000	29.451314
16.660000	29.451314
16.670000	29.451314
16.680000	29.451314
16.690000	29.451314
16.700000	29.451314
16.710000	29.451314
16.720000	29.451314
16.730000	29.451314
16.740000	29.451314
16.750000	29.451314
16.760000	29.451314
16.770000	29.451314
16.780000	29.451314
16.790000	29.451314
16.800000	29.451314
16.810000	29.451314
16.820000	29.451314
16.830000	29.451314
16.840000	29.451314
16.850000	29.451314
16.860000	29.451314
16.870000	29.451314
16.880000	29.451314
16.890000	29.451314
16.900000	29.451314
16.910000	29.451314
16.920000	29.451314
16.930000	29.451314
16.940000	29.451314
16.950000	29.451314
16.960000	29.451314
16.970000	29.451314
16.980000	29.451314
16.990000	29.451314
17.000000	29.360602
17.010000	29.360602
17.020000	29.360602
17.030000	29.360602
17.040000	29.360602
17.050000	29.360602
17.060000	29.360602
17.070000	29.360602
17.080000	29.360602
17.090000	29.360602
17.100000	29.360602
17.110000	29.360602
17.120000	29.360602
17.130000	29.360602
17.140000	29.360602
17.150000	29.360602
17.160000	29.360602
17.170000	29.360602
17.180000	29.360602
17.190000	29.360602
17.200000	29.360602
17.210000	29.360602
17.220000	29.360602
17.230000	29.360602
17.240000	29.360602
17.250000	29.360602
17.260000	29.360602
17.270000	29.360602
17.280000	29.360602
17.290000	29.360602
17.300000	29.360602
17.310000	29.360602
17.320000	29.360602
17.330000	29.360602
17.340000	29.360602
17.350000	29.360602
17.360000	29.360602
17.370000	29.360602
17.380000	29.360602
17.390000	29.360602
17.400000	29.360602
17.410000	29.360602
17.420000	29.360602
17.430000	29.360602
17.440000	29.360602
17.450000	29.360602
17.460000	29.360602
17.470000	29.360602
17.480000	29.360602
17.490000	29.360602
17.500000	29.273482
17.510000	29.273482
17.520000	29.273482
17.530000	29.273482
17.540000	29.273482
17.550000	29.273482
17.560000	29.273482
17.570000	29.273482
17.580000	29.273482
17.590000	29.273482
17.600000	29.273482
17.610000	29.273482
17.620000	29.273482
17.630000	29.273482
17.640000	29.273482
17.650000	29.273482
17.660000	29.273482
17.670000	29.273482
17.680000	29.273482
17.690000	29.273482
17.700000	29.273482
17.710000	29.273482
17.720000	29.273482
17.730000	29.273482
17.740000	29.273482
17.750000	29.273482
17.760000	29.273482
17.770000	29.273482
17.780000	29.273482
17.790000	29.273482
17.800000	29.273482
17.810000	29.273482
17.820000	29.273482
17.830000	29.273482
17.840000	29.273482
17.850000	29.273482
17.860000	29.273482
17.870000	29.273482
17.880000	29.273482
17.890000	29.273482
17.900000	29.273482
17.910000	29.273482
17.920000	29.273482
17.930000	29.273482
17.940000	29.273482
17.950000	29.273482
17.960000	29.273482
17.970000	29.273482
17.980000	29.273482
17.990000	29.273482
