LabVIEW Measurement	
Writer_Version	2
Reader_Version	2
Separator	Tab
Decimal_Separator	.
Multi_Headings	No
X_Columns	One
Time_Pref	Absolute
Operator	biomech-dyno
Date	2023/05/23
Time	16:26:31.1792034999998606061
***End_of_Header***	
	
Channels	1	
Samples	10	
Date	2023/05/23	
Time	16:32:50.0737010999999152347	
X_Dimension	Time	
X0	0.0000000000000000E+0	
Delta_X	0.010000	
***End_of_Header***		
X_Value	Untitled	Comment
0.000000	25.115102
0.010000	25.115102
0.020000	25.115102
0.030000	25.115102
0.040000	25.115102
0.050000	25.115102
0.060000	25.115102
0.070000	25.115102
0.080000	25.115102
0.090000	25.115102
0.100000	25.115102
0.110000	25.115102
0.120000	25.115102
0.130000	25.115102
0.140000	25.115102
0.150000	25.115102
0.160000	25.115102
0.170000	25.115102
0.180000	25.115102
0.190000	25.115102
0.200000	25.115102
0.210000	25.115102
0.220000	25.115102
0.230000	25.115102
0.240000	25.115102
0.250000	25.115102
0.260000	25.115102
0.270000	25.115102
0.280000	25.115102
0.290000	25.115102
0.300000	25.115102
0.310000	25.115102
0.320000	25.115102
0.330000	25.115102
0.340000	25.115102
0.350000	25.115102
0.360000	25.115102
0.370000	25.115102
0.380000	25.115102
0.390000	25.115102
0.400000	25.115102
0.410000	25.115102
0.420000	25.115102
0.430000	25.115102
0.440000	25.115102
0.450000	25.115102
0.460000	25.115102
0.470000	25.115102
0.480000	25.115102
0.490000	25.115102
0.500000	25.123879
0.510000	25.123879
0.520000	25.123879
0.530000	25.123879
0.540000	25.123879
0.550000	25.123879
0.560000	25.123879
0.570000	25.123879
0.580000	25.123879
0.590000	25.123879
0.600000	25.123879
0.610000	25.123879
0.620000	25.123879
0.630000	25.123879
0.640000	25.123879
0.650000	25.123879
0.660000	25.123879
0.670000	25.123879
0.680000	25.123879
0.690000	25.123879
0.700000	25.123879
0.710000	25.123879
0.720000	25.123879
0.730000	25.123879
0.740000	25.123879
0.750000	25.123879
0.760000	25.123879
0.770000	25.123879
0.780000	25.123879
0.790000	25.123879
0.800000	25.123879
0.810000	25.123879
0.820000	25.123879
0.830000	25.123879
0.840000	25.123879
0.850000	25.123879
0.860000	25.123879
0.870000	25.123879
0.880000	25.123879
0.890000	25.123879
0.900000	25.123879
0.910000	25.123879
0.920000	25.123879
0.930000	25.123879
0.940000	25.123879
0.950000	25.123879
0.960000	25.123879
0.970000	25.123879
0.980000	25.123879
0.990000	25.123879
1.000000	25.268268
1.010000	25.268268
1.020000	25.268268
1.030000	25.268268
1.040000	25.268268
1.050000	25.268268
1.060000	25.268268
1.070000	25.268268
1.080000	25.268268
1.090000	25.268268
1.100000	25.268268
1.110000	25.268268
1.120000	25.268268
1.130000	25.268268
1.140000	25.268268
1.150000	25.268268
1.160000	25.268268
1.170000	25.268268
1.180000	25.268268
1.190000	25.268268
1.200000	25.268268
1.210000	25.268268
1.220000	25.268268
1.230000	25.268268
1.240000	25.268268
1.250000	25.268268
1.260000	25.268268
1.270000	25.268268
1.280000	25.268268
1.290000	25.268268
1.300000	25.268268
1.310000	25.268268
1.320000	25.268268
1.330000	25.268268
1.340000	25.268268
1.350000	25.268268
1.360000	25.268268
1.370000	25.268268
1.380000	25.268268
1.390000	25.268268
1.400000	25.268268
1.410000	25.268268
1.420000	25.268268
1.430000	25.268268
1.440000	25.268268
1.450000	25.268268
1.460000	25.268268
1.470000	25.268268
1.480000	25.268268
1.490000	25.268268
1.500000	25.653432
1.510000	25.653432
1.520000	25.653432
1.530000	25.653432
1.540000	25.653432
1.550000	25.653432
1.560000	25.653432
1.570000	25.653432
1.580000	25.653432
1.590000	25.653432
1.600000	25.653432
1.610000	25.653432
1.620000	25.653432
1.630000	25.653432
1.640000	25.653432
1.650000	25.653432
1.660000	25.653432
1.670000	25.653432
1.680000	25.653432
1.690000	25.653432
1.700000	25.653432
1.710000	25.653432
1.720000	25.653432
1.730000	25.653432
1.740000	25.653432
1.750000	25.653432
1.760000	25.653432
1.770000	25.653432
1.780000	25.653432
1.790000	25.653432
1.800000	25.653432
1.810000	25.653432
1.820000	25.653432
1.830000	25.653432
1.840000	25.653432
1.850000	25.653432
1.860000	25.653432
1.870000	25.653432
1.880000	25.653432
1.890000	25.653432
1.900000	25.653432
1.910000	25.653432
1.920000	25.653432
1.930000	25.653432
1.940000	25.653432
1.950000	25.653432
1.960000	25.653432
1.970000	25.653432
1.980000	25.653432
1.990000	25.653432
2.000000	26.251046
2.010000	26.251046
2.020000	26.251046
2.030000	26.251046
2.040000	26.251046
2.050000	26.251046
2.060000	26.251046
2.070000	26.251046
2.080000	26.251046
2.090000	26.251046
2.100000	26.251046
2.110000	26.251046
2.120000	26.251046
2.130000	26.251046
2.140000	26.251046
2.150000	26.251046
2.160000	26.251046
2.170000	26.251046
2.180000	26.251046
2.190000	26.251046
2.200000	26.251046
2.210000	26.251046
2.220000	26.251046
2.230000	26.251046
2.240000	26.251046
2.250000	26.251046
2.260000	26.251046
2.270000	26.251046
2.280000	26.251046
2.290000	26.251046
2.300000	26.251046
2.310000	26.251046
2.320000	26.251046
2.330000	26.251046
2.340000	26.251046
2.350000	26.251046
2.360000	26.251046
2.370000	26.251046
2.380000	26.251046
2.390000	26.251046
2.400000	26.251046
2.410000	26.251046
2.420000	26.251046
2.430000	26.251046
2.440000	26.251046
2.450000	26.251046
2.460000	26.251046
2.470000	26.251046
2.480000	26.251046
2.490000	26.251046
2.500000	27.018360
2.510000	27.018360
2.520000	27.018360
2.530000	27.018360
2.540000	27.018360
2.550000	27.018360
2.560000	27.018360
2.570000	27.018360
2.580000	27.018360
2.590000	27.018360
2.600000	27.018360
2.610000	27.018360
2.620000	27.018360
2.630000	27.018360
2.640000	27.018360
2.650000	27.018360
2.660000	27.018360
2.670000	27.018360
2.680000	27.018360
2.690000	27.018360
2.700000	27.018360
2.710000	27.018360
2.720000	27.018360
2.730000	27.018360
2.740000	27.018360
2.750000	27.018360
2.760000	27.018360
2.770000	27.018360
2.780000	27.018360
2.790000	27.018360
2.800000	27.018360
2.810000	27.018360
2.820000	27.018360
2.830000	27.018360
2.840000	27.018360
2.850000	27.018360
2.860000	27.018360
2.870000	27.018360
2.880000	27.018360
2.890000	27.018360
2.900000	27.018360
2.910000	27.018360
2.920000	27.018360
2.930000	27.018360
2.940000	27.018360
2.950000	27.018360
2.960000	27.018360
2.970000	27.018360
2.980000	27.018360
2.990000	27.018360
3.000000	27.913292
3.010000	27.913292
3.020000	27.913292
3.030000	27.913292
3.040000	27.913292
3.050000	27.913292
3.060000	27.913292
3.070000	27.913292
3.080000	27.913292
3.090000	27.913292
3.100000	27.913292
3.110000	27.913292
3.120000	27.913292
3.130000	27.913292
3.140000	27.913292
3.150000	27.913292
3.160000	27.913292
3.170000	27.913292
3.180000	27.913292
3.190000	27.913292
3.200000	27.913292
3.210000	27.913292
3.220000	27.913292
3.230000	27.913292
3.240000	27.913292
3.250000	27.913292
3.260000	27.913292
3.270000	27.913292
3.280000	27.913292
3.290000	27.913292
3.300000	27.913292
3.310000	27.913292
3.320000	27.913292
3.330000	27.913292
3.340000	27.913292
3.350000	27.913292
3.360000	27.913292
3.370000	27.913292
3.380000	27.913292
3.390000	27.913292
3.400000	27.913292
3.410000	27.913292
3.420000	27.913292
3.430000	27.913292
3.440000	27.913292
3.450000	27.913292
3.460000	27.913292
3.470000	27.913292
3.480000	27.913292
3.490000	27.913292
3.500000	28.888658
3.510000	28.888658
3.520000	28.888658
3.530000	28.888658
3.540000	28.888658
3.550000	28.888658
3.560000	28.888658
3.570000	28.888658
3.580000	28.888658
3.590000	28.888658
3.600000	28.888658
3.610000	28.888658
3.620000	28.888658
3.630000	28.888658
3.640000	28.888658
3.650000	28.888658
3.660000	28.888658
3.670000	28.888658
3.680000	28.888658
3.690000	28.888658
3.700000	28.888658
3.710000	28.888658
3.720000	28.888658
3.730000	28.888658
3.740000	28.888658
3.750000	28.888658
3.760000	28.888658
3.770000	28.888658
3.780000	28.888658
3.790000	28.888658
3.800000	28.888658
3.810000	28.888658
3.820000	28.888658
3.830000	28.888658
3.840000	28.888658
3.850000	28.888658
3.860000	28.888658
3.870000	28.888658
3.880000	28.888658
3.890000	28.888658
3.900000	28.888658
3.910000	28.888658
3.920000	28.888658
3.930000	28.888658
3.940000	28.888658
3.950000	28.888658
3.960000	28.888658
3.970000	28.888658
3.980000	28.888658
3.990000	28.888658
4.000000	29.757162
4.010000	29.757162
4.020000	29.757162
4.030000	29.757162
4.040000	29.757162
4.050000	29.757162
4.060000	29.757162
4.070000	29.757162
4.080000	29.757162
4.090000	29.757162
4.100000	29.757162
4.110000	29.757162
4.120000	29.757162
4.130000	29.757162
4.140000	29.757162
4.150000	29.757162
4.160000	29.757162
4.170000	29.757162
4.180000	29.757162
4.190000	29.757162
4.200000	29.757162
4.210000	29.757162
4.220000	29.757162
4.230000	29.757162
4.240000	29.757162
4.250000	29.757162
4.260000	29.757162
4.270000	29.757162
4.280000	29.757162
4.290000	29.757162
4.300000	29.757162
4.310000	29.757162
4.320000	29.757162
4.330000	29.757162
4.340000	29.757162
4.350000	29.757162
4.360000	29.757162
4.370000	29.757162
4.380000	29.757162
4.390000	29.757162
4.400000	29.757162
4.410000	29.757162
4.420000	29.757162
4.430000	29.757162
4.440000	29.757162
4.450000	29.757162
4.460000	29.757162
4.470000	29.757162
4.480000	29.757162
4.490000	29.757162
4.500000	30.431353
4.510000	30.431353
4.520000	30.431353
4.530000	30.431353
4.540000	30.431353
4.550000	30.431353
4.560000	30.431353
4.570000	30.431353
4.580000	30.431353
4.590000	30.431353
4.600000	30.431353
4.610000	30.431353
4.620000	30.431353
4.630000	30.431353
4.640000	30.431353
4.650000	30.431353
4.660000	30.431353
4.670000	30.431353
4.680000	30.431353
4.690000	30.431353
4.700000	30.431353
4.710000	30.431353
4.720000	30.431353
4.730000	30.431353
4.740000	30.431353
4.750000	30.431353
4.760000	30.431353
4.770000	30.431353
4.780000	30.431353
4.790000	30.431353
4.800000	30.431353
4.810000	30.431353
4.820000	30.431353
4.830000	30.431353
4.840000	30.431353
4.850000	30.431353
4.860000	30.431353
4.870000	30.431353
4.880000	30.431353
4.890000	30.431353
4.900000	30.431353
4.910000	30.431353
4.920000	30.431353
4.930000	30.431353
4.940000	30.431353
4.950000	30.431353
4.960000	30.431353
4.970000	30.431353
4.980000	30.431353
4.990000	30.431353
5.000000	30.930198
5.010000	30.930198
5.020000	30.930198
5.030000	30.930198
5.040000	30.930198
5.050000	30.930198
5.060000	30.930198
5.070000	30.930198
5.080000	30.930198
5.090000	30.930198
5.100000	30.930198
5.110000	30.930198
5.120000	30.930198
5.130000	30.930198
5.140000	30.930198
5.150000	30.930198
5.160000	30.930198
5.170000	30.930198
5.180000	30.930198
5.190000	30.930198
5.200000	30.930198
5.210000	30.930198
5.220000	30.930198
5.230000	30.930198
5.240000	30.930198
5.250000	30.930198
5.260000	30.930198
5.270000	30.930198
5.280000	30.930198
5.290000	30.930198
5.300000	30.930198
5.310000	30.930198
5.320000	30.930198
5.330000	30.930198
5.340000	30.930198
5.350000	30.930198
5.360000	30.930198
5.370000	30.930198
5.380000	30.930198
5.390000	30.930198
5.400000	30.930198
5.410000	30.930198
5.420000	30.930198
5.430000	30.930198
5.440000	30.930198
5.450000	30.930198
5.460000	30.930198
5.470000	30.930198
5.480000	30.930198
5.490000	30.930198
5.500000	31.291136
5.510000	31.291136
5.520000	31.291136
5.530000	31.291136
5.540000	31.291136
5.550000	31.291136
5.560000	31.291136
5.570000	31.291136
5.580000	31.291136
5.590000	31.291136
5.600000	31.291136
5.610000	31.291136
5.620000	31.291136
5.630000	31.291136
5.640000	31.291136
5.650000	31.291136
5.660000	31.291136
5.670000	31.291136
5.680000	31.291136
5.690000	31.291136
5.700000	31.291136
5.710000	31.291136
5.720000	31.291136
5.730000	31.291136
5.740000	31.291136
5.750000	31.291136
5.760000	31.291136
5.770000	31.291136
5.780000	31.291136
5.790000	31.291136
5.800000	31.291136
5.810000	31.291136
5.820000	31.291136
5.830000	31.291136
5.840000	31.291136
5.850000	31.291136
5.860000	31.291136
5.870000	31.291136
5.880000	31.291136
5.890000	31.291136
5.900000	31.291136
5.910000	31.291136
5.920000	31.291136
5.930000	31.291136
5.940000	31.291136
5.950000	31.291136
5.960000	31.291136
5.970000	31.291136
5.980000	31.291136
5.990000	31.291136
6.000000	31.544828
6.010000	31.544828
6.020000	31.544828
6.030000	31.544828
6.040000	31.544828
6.050000	31.544828
6.060000	31.544828
6.070000	31.544828
6.080000	31.544828
6.090000	31.544828
6.100000	31.544828
6.110000	31.544828
6.120000	31.544828
6.130000	31.544828
6.140000	31.544828
6.150000	31.544828
6.160000	31.544828
6.170000	31.544828
6.180000	31.544828
6.190000	31.544828
6.200000	31.544828
6.210000	31.544828
6.220000	31.544828
6.230000	31.544828
6.240000	31.544828
6.250000	31.544828
6.260000	31.544828
6.270000	31.544828
6.280000	31.544828
6.290000	31.544828
6.300000	31.544828
6.310000	31.544828
6.320000	31.544828
6.330000	31.544828
6.340000	31.544828
6.350000	31.544828
6.360000	31.544828
6.370000	31.544828
6.380000	31.544828
6.390000	31.544828
6.400000	31.544828
6.410000	31.544828
6.420000	31.544828
6.430000	31.544828
6.440000	31.544828
6.450000	31.544828
6.460000	31.544828
6.470000	31.544828
6.480000	31.544828
6.490000	31.544828
6.500000	31.715531
6.510000	31.715531
6.520000	31.715531
6.530000	31.715531
6.540000	31.715531
6.550000	31.715531
6.560000	31.715531
6.570000	31.715531
6.580000	31.715531
6.590000	31.715531
6.600000	31.715531
6.610000	31.715531
6.620000	31.715531
6.630000	31.715531
6.640000	31.715531
6.650000	31.715531
6.660000	31.715531
6.670000	31.715531
6.680000	31.715531
6.690000	31.715531
6.700000	31.715531
6.710000	31.715531
6.720000	31.715531
6.730000	31.715531
6.740000	31.715531
6.750000	31.715531
6.760000	31.715531
6.770000	31.715531
6.780000	31.715531
6.790000	31.715531
6.800000	31.715531
6.810000	31.715531
6.820000	31.715531
6.830000	31.715531
6.840000	31.715531
6.850000	31.715531
6.860000	31.715531
6.870000	31.715531
6.880000	31.715531
6.890000	31.715531
6.900000	31.715531
6.910000	31.715531
6.920000	31.715531
6.930000	31.715531
6.940000	31.715531
6.950000	31.715531
6.960000	31.715531
6.970000	31.715531
6.980000	31.715531
6.990000	31.715531
7.000000	31.820546
7.010000	31.820546
7.020000	31.820546
7.030000	31.820546
7.040000	31.820546
7.050000	31.820546
7.060000	31.820546
7.070000	31.820546
7.080000	31.820546
7.090000	31.820546
7.100000	31.820546
7.110000	31.820546
7.120000	31.820546
7.130000	31.820546
7.140000	31.820546
7.150000	31.820546
7.160000	31.820546
7.170000	31.820546
7.180000	31.820546
7.190000	31.820546
7.200000	31.820546
7.210000	31.820546
7.220000	31.820546
7.230000	31.820546
7.240000	31.820546
7.250000	31.820546
7.260000	31.820546
7.270000	31.820546
7.280000	31.820546
7.290000	31.820546
7.300000	31.820546
7.310000	31.820546
7.320000	31.820546
7.330000	31.820546
7.340000	31.820546
7.350000	31.820546
7.360000	31.820546
7.370000	31.820546
7.380000	31.820546
7.390000	31.820546
7.400000	31.820546
7.410000	31.820546
7.420000	31.820546
7.430000	31.820546
7.440000	31.820546
7.450000	31.820546
7.460000	31.820546
7.470000	31.820546
7.480000	31.820546
7.490000	31.820546
7.500000	31.872243
7.510000	31.872243
7.520000	31.872243
7.530000	31.872243
7.540000	31.872243
7.550000	31.872243
7.560000	31.872243
7.570000	31.872243
7.580000	31.872243
7.590000	31.872243
7.600000	31.872243
7.610000	31.872243
7.620000	31.872243
7.630000	31.872243
7.640000	31.872243
7.650000	31.872243
7.660000	31.872243
7.670000	31.872243
7.680000	31.872243
7.690000	31.872243
7.700000	31.872243
7.710000	31.872243
7.720000	31.872243
7.730000	31.872243
7.740000	31.872243
7.750000	31.872243
7.760000	31.872243
7.770000	31.872243
7.780000	31.872243
7.790000	31.872243
7.800000	31.872243
7.810000	31.872243
7.820000	31.872243
7.830000	31.872243
7.840000	31.872243
7.850000	31.872243
7.860000	31.872243
7.870000	31.872243
7.880000	31.872243
7.890000	31.872243
7.900000	31.872243
7.910000	31.872243
7.920000	31.872243
7.930000	31.872243
7.940000	31.872243
7.950000	31.872243
7.960000	31.872243
7.970000	31.872243
7.980000	31.872243
7.990000	31.872243
8.000000	31.892509
8.010000	31.892509
8.020000	31.892509
8.030000	31.892509
8.040000	31.892509
8.050000	31.892509
8.060000	31.892509
8.070000	31.892509
8.080000	31.892509
8.090000	31.892509
8.100000	31.892509
8.110000	31.892509
8.120000	31.892509
8.130000	31.892509
8.140000	31.892509
8.150000	31.892509
8.160000	31.892509
8.170000	31.892509
8.180000	31.892509
8.190000	31.892509
8.200000	31.892509
8.210000	31.892509
8.220000	31.892509
8.230000	31.892509
8.240000	31.892509
8.250000	31.892509
8.260000	31.892509
8.270000	31.892509
8.280000	31.892509
8.290000	31.892509
8.300000	31.892509
8.310000	31.892509
8.320000	31.892509
8.330000	31.892509
8.340000	31.892509
8.350000	31.892509
8.360000	31.892509
8.370000	31.892509
8.380000	31.892509
8.390000	31.892509
8.400000	31.892509
8.410000	31.892509
8.420000	31.892509
8.430000	31.892509
8.440000	31.892509
8.450000	31.892509
8.460000	31.892509
8.470000	31.892509
8.480000	31.892509
8.490000	31.892509
8.500000	31.886160
8.510000	31.886160
8.520000	31.886160
8.530000	31.886160
8.540000	31.886160
8.550000	31.886160
8.560000	31.886160
8.570000	31.886160
8.580000	31.886160
8.590000	31.886160
8.600000	31.886160
8.610000	31.886160
8.620000	31.886160
8.630000	31.886160
8.640000	31.886160
8.650000	31.886160
8.660000	31.886160
8.670000	31.886160
8.680000	31.886160
8.690000	31.886160
8.700000	31.886160
8.710000	31.886160
8.720000	31.886160
8.730000	31.886160
8.740000	31.886160
8.750000	31.886160
8.760000	31.886160
8.770000	31.886160
8.780000	31.886160
8.790000	31.886160
8.800000	31.886160
8.810000	31.886160
8.820000	31.886160
8.830000	31.886160
8.840000	31.886160
8.850000	31.886160
8.860000	31.886160
8.870000	31.886160
8.880000	31.886160
8.890000	31.886160
8.900000	31.886160
8.910000	31.886160
8.920000	31.886160
8.930000	31.886160
8.940000	31.886160
8.950000	31.886160
8.960000	31.886160
8.970000	31.886160
8.980000	31.886160
8.990000	31.886160
9.000000	31.857272
9.010000	31.857272
9.020000	31.857272
9.030000	31.857272
9.040000	31.857272
9.050000	31.857272
9.060000	31.857272
9.070000	31.857272
9.080000	31.857272
9.090000	31.857272
9.100000	31.857272
9.110000	31.857272
9.120000	31.857272
9.130000	31.857272
9.140000	31.857272
9.150000	31.857272
9.160000	31.857272
9.170000	31.857272
9.180000	31.857272
9.190000	31.857272
9.200000	31.857272
9.210000	31.857272
9.220000	31.857272
9.230000	31.857272
9.240000	31.857272
9.250000	31.857272
9.260000	31.857272
9.270000	31.857272
9.280000	31.857272
9.290000	31.857272
9.300000	31.857272
9.310000	31.857272
9.320000	31.857272
9.330000	31.857272
9.340000	31.857272
9.350000	31.857272
9.360000	31.857272
9.370000	31.857272
9.380000	31.857272
9.390000	31.857272
9.400000	31.857272
9.410000	31.857272
9.420000	31.857272
9.430000	31.857272
9.440000	31.857272
9.450000	31.857272
9.460000	31.857272
9.470000	31.857272
9.480000	31.857272
9.490000	31.857272
9.500000	31.807141
9.510000	31.807141
9.520000	31.807141
9.530000	31.807141
9.540000	31.807141
9.550000	31.807141
9.560000	31.807141
9.570000	31.807141
9.580000	31.807141
9.590000	31.807141
9.600000	31.807141
9.610000	31.807141
9.620000	31.807141
9.630000	31.807141
9.640000	31.807141
9.650000	31.807141
9.660000	31.807141
9.670000	31.807141
9.680000	31.807141
9.690000	31.807141
9.700000	31.807141
9.710000	31.807141
9.720000	31.807141
9.730000	31.807141
9.740000	31.807141
9.750000	31.807141
9.760000	31.807141
9.770000	31.807141
9.780000	31.807141
9.790000	31.807141
9.800000	31.807141
9.810000	31.807141
9.820000	31.807141
9.830000	31.807141
9.840000	31.807141
9.850000	31.807141
9.860000	31.807141
9.870000	31.807141
9.880000	31.807141
9.890000	31.807141
9.900000	31.807141
9.910000	31.807141
9.920000	31.807141
9.930000	31.807141
9.940000	31.807141
9.950000	31.807141
9.960000	31.807141
9.970000	31.807141
9.980000	31.807141
9.990000	31.807141
10.000000	31.734122
10.010000	31.734122
10.020000	31.734122
10.030000	31.734122
10.040000	31.734122
10.050000	31.734122
10.060000	31.734122
10.070000	31.734122
10.080000	31.734122
10.090000	31.734122
10.100000	31.734122
10.110000	31.734122
10.120000	31.734122
10.130000	31.734122
10.140000	31.734122
10.150000	31.734122
10.160000	31.734122
10.170000	31.734122
10.180000	31.734122
10.190000	31.734122
10.200000	31.734122
10.210000	31.734122
10.220000	31.734122
10.230000	31.734122
10.240000	31.734122
10.250000	31.734122
10.260000	31.734122
10.270000	31.734122
10.280000	31.734122
10.290000	31.734122
10.300000	31.734122
10.310000	31.734122
10.320000	31.734122
10.330000	31.734122
10.340000	31.734122
10.350000	31.734122
10.360000	31.734122
10.370000	31.734122
10.380000	31.734122
10.390000	31.734122
10.400000	31.734122
10.410000	31.734122
10.420000	31.734122
10.430000	31.734122
10.440000	31.734122
10.450000	31.734122
10.460000	31.734122
10.470000	31.734122
10.480000	31.734122
10.490000	31.734122
10.500000	31.649207
10.510000	31.649207
10.520000	31.649207
10.530000	31.649207
10.540000	31.649207
10.550000	31.649207
10.560000	31.649207
10.570000	31.649207
10.580000	31.649207
10.590000	31.649207
10.600000	31.649207
10.610000	31.649207
10.620000	31.649207
10.630000	31.649207
10.640000	31.649207
10.650000	31.649207
10.660000	31.649207
10.670000	31.649207
10.680000	31.649207
10.690000	31.649207
10.700000	31.649207
10.710000	31.649207
10.720000	31.649207
10.730000	31.649207
10.740000	31.649207
10.750000	31.649207
10.760000	31.649207
10.770000	31.649207
10.780000	31.649207
10.790000	31.649207
10.800000	31.649207
10.810000	31.649207
10.820000	31.649207
10.830000	31.649207
10.840000	31.649207
10.850000	31.649207
10.860000	31.649207
10.870000	31.649207
10.880000	31.649207
10.890000	31.649207
10.900000	31.649207
10.910000	31.649207
10.920000	31.649207
10.930000	31.649207
10.940000	31.649207
10.950000	31.649207
10.960000	31.649207
10.970000	31.649207
10.980000	31.649207
10.990000	31.649207
11.000000	31.555472
11.010000	31.555472
11.020000	31.555472
11.030000	31.555472
11.040000	31.555472
11.050000	31.555472
11.060000	31.555472
11.070000	31.555472
11.080000	31.555472
11.090000	31.555472
11.100000	31.555472
11.110000	31.555472
11.120000	31.555472
11.130000	31.555472
11.140000	31.555472
11.150000	31.555472
11.160000	31.555472
11.170000	31.555472
11.180000	31.555472
11.190000	31.555472
11.200000	31.555472
11.210000	31.555472
11.220000	31.555472
11.230000	31.555472
11.240000	31.555472
11.250000	31.555472
11.260000	31.555472
11.270000	31.555472
11.280000	31.555472
11.290000	31.555472
11.300000	31.555472
11.310000	31.555472
11.320000	31.555472
11.330000	31.555472
11.340000	31.555472
11.350000	31.555472
11.360000	31.555472
11.370000	31.555472
11.380000	31.555472
11.390000	31.555472
11.400000	31.555472
11.410000	31.555472
11.420000	31.555472
11.430000	31.555472
11.440000	31.555472
11.450000	31.555472
11.460000	31.555472
11.470000	31.555472
11.480000	31.555472
11.490000	31.555472
11.500000	31.469568
11.510000	31.469568
11.520000	31.469568
11.530000	31.469568
11.540000	31.469568
11.550000	31.469568
11.560000	31.469568
11.570000	31.469568
11.580000	31.469568
11.590000	31.469568
11.600000	31.469568
11.610000	31.469568
11.620000	31.469568
11.630000	31.469568
11.640000	31.469568
11.650000	31.469568
11.660000	31.469568
11.670000	31.469568
11.680000	31.469568
11.690000	31.469568
11.700000	31.469568
11.710000	31.469568
11.720000	31.469568
11.730000	31.469568
11.740000	31.469568
11.750000	31.469568
11.760000	31.469568
11.770000	31.469568
11.780000	31.469568
11.790000	31.469568
11.800000	31.469568
11.810000	31.469568
11.820000	31.469568
11.830000	31.469568
11.840000	31.469568
11.850000	31.469568
11.860000	31.469568
11.870000	31.469568
11.880000	31.469568
11.890000	31.469568
11.900000	31.469568
11.910000	31.469568
11.920000	31.469568
11.930000	31.469568
11.940000	31.469568
11.950000	31.469568
11.960000	31.469568
11.970000	31.469568
11.980000	31.469568
11.990000	31.469568
12.000000	31.383185
12.010000	31.383185
12.020000	31.383185
12.030000	31.383185
12.040000	31.383185
12.050000	31.383185
12.060000	31.383185
12.070000	31.383185
12.080000	31.383185
12.090000	31.383185
12.100000	31.383185
12.110000	31.383185
12.120000	31.383185
12.130000	31.383185
12.140000	31.383185
12.150000	31.383185
12.160000	31.383185
12.170000	31.383185
12.180000	31.383185
12.190000	31.383185
12.200000	31.383185
12.210000	31.383185
12.220000	31.383185
12.230000	31.383185
12.240000	31.383185
12.250000	31.383185
12.260000	31.383185
12.270000	31.383185
12.280000	31.383185
12.290000	31.383185
12.300000	31.383185
12.310000	31.383185
12.320000	31.383185
12.330000	31.383185
12.340000	31.383185
12.350000	31.383185
12.360000	31.383185
12.370000	31.383185
12.380000	31.383185
12.390000	31.383185
12.400000	31.383185
12.410000	31.383185
12.420000	31.383185
12.430000	31.383185
12.440000	31.383185
12.450000	31.383185
12.460000	31.383185
12.470000	31.383185
12.480000	31.383185
12.490000	31.383185
12.500000	31.291259
12.510000	31.291259
12.520000	31.291259
12.530000	31.291259
12.540000	31.291259
12.550000	31.291259
12.560000	31.291259
12.570000	31.291259
12.580000	31.291259
12.590000	31.291259
12.600000	31.291259
12.610000	31.291259
12.620000	31.291259
12.630000	31.291259
12.640000	31.291259
12.650000	31.291259
12.660000	31.291259
12.670000	31.291259
12.680000	31.291259
12.690000	31.291259
12.700000	31.291259
12.710000	31.291259
12.720000	31.291259
12.730000	31.291259
12.740000	31.291259
12.750000	31.291259
12.760000	31.291259
12.770000	31.291259
12.780000	31.291259
12.790000	31.291259
12.800000	31.291259
12.810000	31.291259
12.820000	31.291259
12.830000	31.291259
12.840000	31.291259
12.850000	31.291259
12.860000	31.291259
12.870000	31.291259
12.880000	31.291259
12.890000	31.291259
12.900000	31.291259
12.910000	31.291259
12.920000	31.291259
12.930000	31.291259
12.940000	31.291259
12.950000	31.291259
12.960000	31.291259
12.970000	31.291259
12.980000	31.291259
12.990000	31.291259
13.000000	31.195188
13.010000	31.195188
13.020000	31.195188
13.030000	31.195188
13.040000	31.195188
13.050000	31.195188
13.060000	31.195188
13.070000	31.195188
13.080000	31.195188
13.090000	31.195188
13.100000	31.195188
13.110000	31.195188
13.120000	31.195188
13.130000	31.195188
13.140000	31.195188
13.150000	31.195188
13.160000	31.195188
13.170000	31.195188
13.180000	31.195188
13.190000	31.195188
13.200000	31.195188
13.210000	31.195188
13.220000	31.195188
13.230000	31.195188
13.240000	31.195188
13.250000	31.195188
13.260000	31.195188
13.270000	31.195188
13.280000	31.195188
13.290000	31.195188
13.300000	31.195188
13.310000	31.195188
13.320000	31.195188
13.330000	31.195188
13.340000	31.195188
13.350000	31.195188
13.360000	31.195188
13.370000	31.195188
13.380000	31.195188
13.390000	31.195188
13.400000	31.195188
13.410000	31.195188
13.420000	31.195188
13.430000	31.195188
13.440000	31.195188
13.450000	31.195188
13.460000	31.195188
13.470000	31.195188
13.480000	31.195188
13.490000	31.195188
13.500000	31.098652
13.510000	31.098652
13.520000	31.098652
13.530000	31.098652
13.540000	31.098652
13.550000	31.098652
13.560000	31.098652
13.570000	31.098652
13.580000	31.098652
13.590000	31.098652
13.600000	31.098652
13.610000	31.098652
13.620000	31.098652
13.630000	31.098652
13.640000	31.098652
13.650000	31.098652
13.660000	31.098652
13.670000	31.098652
13.680000	31.098652
13.690000	31.098652
13.700000	31.098652
13.710000	31.098652
13.720000	31.098652
13.730000	31.098652
13.740000	31.098652
13.750000	31.098652
13.760000	31.098652
13.770000	31.098652
13.780000	31.098652
13.790000	31.098652
13.800000	31.098652
13.810000	31.098652
13.820000	31.098652
13.830000	31.098652
13.840000	31.098652
13.850000	31.098652
13.860000	31.098652
13.870000	31.098652
13.880000	31.098652
13.890000	31.098652
13.900000	31.098652
13.910000	31.098652
13.920000	31.098652
13.930000	31.098652
13.940000	31.098652
13.950000	31.098652
13.960000	31.098652
13.970000	31.098652
13.980000	31.098652
13.990000	31.098652
14.000000	31.004984
14.010000	31.004984
14.020000	31.004984
14.030000	31.004984
14.040000	31.004984
14.050000	31.004984
14.060000	31.004984
14.070000	31.004984
14.080000	31.004984
14.090000	31.004984
14.100000	31.004984
14.110000	31.004984
14.120000	31.004984
14.130000	31.004984
14.140000	31.004984
14.150000	31.004984
14.160000	31.004984
14.170000	31.004984
14.180000	31.004984
14.190000	31.004984
14.200000	31.004984
14.210000	31.004984
14.220000	31.004984
14.230000	31.004984
14.240000	31.004984
14.250000	31.004984
14.260000	31.004984
14.270000	31.004984
14.280000	31.004984
14.290000	31.004984
14.300000	31.004984
14.310000	31.004984
14.320000	31.004984
14.330000	31.004984
14.340000	31.004984
14.350000	31.004984
14.360000	31.004984
14.370000	31.004984
14.380000	31.004984
14.390000	31.004984
14.400000	31.004984
14.410000	31.004984
14.420000	31.004984
14.430000	31.004984
14.440000	31.004984
14.450000	31.004984
14.460000	31.004984
14.470000	31.004984
14.480000	31.004984
14.490000	31.004984
14.500000	30.909411
14.510000	30.909411
14.520000	30.909411
14.530000	30.909411
14.540000	30.909411
14.550000	30.909411
14.560000	30.909411
14.570000	30.909411
14.580000	30.909411
14.590000	30.909411
14.600000	30.909411
14.610000	30.909411
14.620000	30.909411
14.630000	30.909411
14.640000	30.909411
14.650000	30.909411
14.660000	30.909411
14.670000	30.909411
14.680000	30.909411
14.690000	30.909411
14.700000	30.909411
14.710000	30.909411
14.720000	30.909411
14.730000	30.909411
14.740000	30.909411
14.750000	30.909411
14.760000	30.909411
14.770000	30.909411
14.780000	30.909411
14.790000	30.909411
14.800000	30.909411
14.810000	30.909411
14.820000	30.909411
14.830000	30.909411
14.840000	30.909411
14.850000	30.909411
14.860000	30.909411
14.870000	30.909411
14.880000	30.909411
14.890000	30.909411
14.900000	30.909411
14.910000	30.909411
14.920000	30.909411
14.930000	30.909411
14.940000	30.909411
14.950000	30.909411
14.960000	30.909411
14.970000	30.909411
14.980000	30.909411
14.990000	30.909411
15.000000	30.810491
15.010000	30.810491
15.020000	30.810491
15.030000	30.810491
15.040000	30.810491
15.050000	30.810491
15.060000	30.810491
15.070000	30.810491
15.080000	30.810491
15.090000	30.810491
15.100000	30.810491
15.110000	30.810491
15.120000	30.810491
15.130000	30.810491
15.140000	30.810491
15.150000	30.810491
15.160000	30.810491
15.170000	30.810491
15.180000	30.810491
15.190000	30.810491
15.200000	30.810491
15.210000	30.810491
15.220000	30.810491
15.230000	30.810491
15.240000	30.810491
15.250000	30.810491
15.260000	30.810491
15.270000	30.810491
15.280000	30.810491
15.290000	30.810491
15.300000	30.810491
15.310000	30.810491
15.320000	30.810491
15.330000	30.810491
15.340000	30.810491
15.350000	30.810491
15.360000	30.810491
15.370000	30.810491
15.380000	30.810491
15.390000	30.810491
15.400000	30.810491
15.410000	30.810491
15.420000	30.810491
15.430000	30.810491
15.440000	30.810491
15.450000	30.810491
15.460000	30.810491
15.470000	30.810491
15.480000	30.810491
15.490000	30.810491
15.500000	30.714482
15.510000	30.714482
15.520000	30.714482
15.530000	30.714482
15.540000	30.714482
15.550000	30.714482
15.560000	30.714482
15.570000	30.714482
15.580000	30.714482
15.590000	30.714482
15.600000	30.714482
15.610000	30.714482
15.620000	30.714482
15.630000	30.714482
15.640000	30.714482
15.650000	30.714482
15.660000	30.714482
15.670000	30.714482
15.680000	30.714482
15.690000	30.714482
15.700000	30.714482
15.710000	30.714482
15.720000	30.714482
15.730000	30.714482
15.740000	30.714482
15.750000	30.714482
15.760000	30.714482
15.770000	30.714482
15.780000	30.714482
15.790000	30.714482
15.800000	30.714482
15.810000	30.714482
15.820000	30.714482
15.830000	30.714482
15.840000	30.714482
15.850000	30.714482
15.860000	30.714482
15.870000	30.714482
15.880000	30.714482
15.890000	30.714482
15.900000	30.714482
15.910000	30.714482
15.920000	30.714482
15.930000	30.714482
15.940000	30.714482
15.950000	30.714482
15.960000	30.714482
15.970000	30.714482
15.980000	30.714482
15.990000	30.714482
16.000000	30.622687
16.010000	30.622687
16.020000	30.622687
16.030000	30.622687
16.040000	30.622687
16.050000	30.622687
16.060000	30.622687
16.070000	30.622687
16.080000	30.622687
16.090000	30.622687
16.100000	30.622687
16.110000	30.622687
16.120000	30.622687
16.130000	30.622687
16.140000	30.622687
16.150000	30.622687
16.160000	30.622687
16.170000	30.622687
16.180000	30.622687
16.190000	30.622687
16.200000	30.622687
16.210000	30.622687
16.220000	30.622687
16.230000	30.622687
16.240000	30.622687
16.250000	30.622687
16.260000	30.622687
16.270000	30.622687
16.280000	30.622687
16.290000	30.622687
16.300000	30.622687
16.310000	30.622687
16.320000	30.622687
16.330000	30.622687
16.340000	30.622687
16.350000	30.622687
16.360000	30.622687
16.370000	30.622687
16.380000	30.622687
16.390000	30.622687
16.400000	30.622687
16.410000	30.622687
16.420000	30.622687
16.430000	30.622687
16.440000	30.622687
16.450000	30.622687
16.460000	30.622687
16.470000	30.622687
16.480000	30.622687
16.490000	30.622687
16.500000	30.533903
16.510000	30.533903
16.520000	30.533903
16.530000	30.533903
16.540000	30.533903
16.550000	30.533903
16.560000	30.533903
16.570000	30.533903
16.580000	30.533903
16.590000	30.533903
16.600000	30.533903
16.610000	30.533903
16.620000	30.533903
16.630000	30.533903
16.640000	30.533903
16.650000	30.533903
16.660000	30.533903
16.670000	30.533903
16.680000	30.533903
16.690000	30.533903
16.700000	30.533903
16.710000	30.533903
16.720000	30.533903
16.730000	30.533903
16.740000	30.533903
16.750000	30.533903
16.760000	30.533903
16.770000	30.533903
16.780000	30.533903
16.790000	30.533903
16.800000	30.533903
16.810000	30.533903
16.820000	30.533903
16.830000	30.533903
16.840000	30.533903
16.850000	30.533903
16.860000	30.533903
16.870000	30.533903
16.880000	30.533903
16.890000	30.533903
16.900000	30.533903
16.910000	30.533903
16.920000	30.533903
16.930000	30.533903
16.940000	30.533903
16.950000	30.533903
16.960000	30.533903
16.970000	30.533903
16.980000	30.533903
16.990000	30.533903
17.000000	30.445418
17.010000	30.445418
17.020000	30.445418
17.030000	30.445418
17.040000	30.445418
17.050000	30.445418
17.060000	30.445418
17.070000	30.445418
17.080000	30.445418
17.090000	30.445418
17.100000	30.445418
17.110000	30.445418
17.120000	30.445418
17.130000	30.445418
17.140000	30.445418
17.150000	30.445418
17.160000	30.445418
17.170000	30.445418
17.180000	30.445418
17.190000	30.445418
17.200000	30.445418
17.210000	30.445418
17.220000	30.445418
17.230000	30.445418
17.240000	30.445418
17.250000	30.445418
17.260000	30.445418
17.270000	30.445418
17.280000	30.445418
17.290000	30.445418
17.300000	30.445418
17.310000	30.445418
17.320000	30.445418
17.330000	30.445418
17.340000	30.445418
17.350000	30.445418
17.360000	30.445418
17.370000	30.445418
17.380000	30.445418
17.390000	30.445418
17.400000	30.445418
17.410000	30.445418
17.420000	30.445418
17.430000	30.445418
17.440000	30.445418
17.450000	30.445418
17.460000	30.445418
17.470000	30.445418
17.480000	30.445418
17.490000	30.445418
17.500000	30.358853
17.510000	30.358853
17.520000	30.358853
17.530000	30.358853
17.540000	30.358853
17.550000	30.358853
17.560000	30.358853
17.570000	30.358853
17.580000	30.358853
17.590000	30.358853
17.600000	30.358853
17.610000	30.358853
17.620000	30.358853
17.630000	30.358853
17.640000	30.358853
17.650000	30.358853
17.660000	30.358853
17.670000	30.358853
17.680000	30.358853
17.690000	30.358853
17.700000	30.358853
17.710000	30.358853
17.720000	30.358853
17.730000	30.358853
17.740000	30.358853
17.750000	30.358853
17.760000	30.358853
17.770000	30.358853
17.780000	30.358853
17.790000	30.358853
17.800000	30.358853
17.810000	30.358853
17.820000	30.358853
17.830000	30.358853
17.840000	30.358853
17.850000	30.358853
17.860000	30.358853
17.870000	30.358853
17.880000	30.358853
17.890000	30.358853
17.900000	30.358853
17.910000	30.358853
17.920000	30.358853
17.930000	30.358853
17.940000	30.358853
17.950000	30.358853
17.960000	30.358853
17.970000	30.358853
17.980000	30.358853
17.990000	30.358853
