LabVIEW Measurement	
Writer_Version	2
Reader_Version	2
Separator	Tab
Decimal_Separator	.
Multi_Headings	No
X_Columns	One
Time_Pref	Absolute
Operator	biomech-dyno
Date	2023/05/23
Time	16:26:31.1792034999998606061
***End_of_Header***	
	
Channels	1	
Samples	10	
Date	2023/05/23	
Time	17:28:27.4674558999997113508	
X_Dimension	Time	
X0	0.0000000000000000E+0	
Delta_X	0.010000	
***End_of_Header***		
X_Value	Untitled	Comment
0.000000	25.120859
0.010000	25.120859
0.020000	25.120859
0.030000	25.120859
0.040000	25.120859
0.050000	25.120859
0.060000	25.120859
0.070000	25.120859
0.080000	25.120859
0.090000	25.120859
0.100000	25.120859
0.110000	25.120859
0.120000	25.120859
0.130000	25.120859
0.140000	25.120859
0.150000	25.120859
0.160000	25.120859
0.170000	25.120859
0.180000	25.120859
0.190000	25.120859
0.200000	25.120859
0.210000	25.120859
0.220000	25.120859
0.230000	25.120859
0.240000	25.120859
0.250000	25.120859
0.260000	25.120859
0.270000	25.120859
0.280000	25.120859
0.290000	25.120859
0.300000	25.120859
0.310000	25.120859
0.320000	25.120859
0.330000	25.120859
0.340000	25.120859
0.350000	25.120859
0.360000	25.120859
0.370000	25.120859
0.380000	25.120859
0.390000	25.120859
0.400000	25.120859
0.410000	25.120859
0.420000	25.120859
0.430000	25.120859
0.440000	25.120859
0.450000	25.120859
0.460000	25.120859
0.470000	25.120859
0.480000	25.120859
0.490000	25.120859
0.500000	25.180196
0.510000	25.180196
0.520000	25.180196
0.530000	25.180196
0.540000	25.180196
0.550000	25.180196
0.560000	25.180196
0.570000	25.180196
0.580000	25.180196
0.590000	25.180196
0.600000	25.180196
0.610000	25.180196
0.620000	25.180196
0.630000	25.180196
0.640000	25.180196
0.650000	25.180196
0.660000	25.180196
0.670000	25.180196
0.680000	25.180196
0.690000	25.180196
0.700000	25.180196
0.710000	25.180196
0.720000	25.180196
0.730000	25.180196
0.740000	25.180196
0.750000	25.180196
0.760000	25.180196
0.770000	25.180196
0.780000	25.180196
0.790000	25.180196
0.800000	25.180196
0.810000	25.180196
0.820000	25.180196
0.830000	25.180196
0.840000	25.180196
0.850000	25.180196
0.860000	25.180196
0.870000	25.180196
0.880000	25.180196
0.890000	25.180196
0.900000	25.180196
0.910000	25.180196
0.920000	25.180196
0.930000	25.180196
0.940000	25.180196
0.950000	25.180196
0.960000	25.180196
0.970000	25.180196
0.980000	25.180196
0.990000	25.180196
1.000000	25.831191
1.010000	25.831191
1.020000	25.831191
1.030000	25.831191
1.040000	25.831191
1.050000	25.831191
1.060000	25.831191
1.070000	25.831191
1.080000	25.831191
1.090000	25.831191
1.100000	25.831191
1.110000	25.831191
1.120000	25.831191
1.130000	25.831191
1.140000	25.831191
1.150000	25.831191
1.160000	25.831191
1.170000	25.831191
1.180000	25.831191
1.190000	25.831191
1.200000	25.831191
1.210000	25.831191
1.220000	25.831191
1.230000	25.831191
1.240000	25.831191
1.250000	25.831191
1.260000	25.831191
1.270000	25.831191
1.280000	25.831191
1.290000	25.831191
1.300000	25.831191
1.310000	25.831191
1.320000	25.831191
1.330000	25.831191
1.340000	25.831191
1.350000	25.831191
1.360000	25.831191
1.370000	25.831191
1.380000	25.831191
1.390000	25.831191
1.400000	25.831191
1.410000	25.831191
1.420000	25.831191
1.430000	25.831191
1.440000	25.831191
1.450000	25.831191
1.460000	25.831191
1.470000	25.831191
1.480000	25.831191
1.490000	25.831191
1.500000	27.366232
1.510000	27.366232
1.520000	27.366232
1.530000	27.366232
1.540000	27.366232
1.550000	27.366232
1.560000	27.366232
1.570000	27.366232
1.580000	27.366232
1.590000	27.366232
1.600000	27.366232
1.610000	27.366232
1.620000	27.366232
1.630000	27.366232
1.640000	27.366232
1.650000	27.366232
1.660000	27.366232
1.670000	27.366232
1.680000	27.366232
1.690000	27.366232
1.700000	27.366232
1.710000	27.366232
1.720000	27.366232
1.730000	27.366232
1.740000	27.366232
1.750000	27.366232
1.760000	27.366232
1.770000	27.366232
1.780000	27.366232
1.790000	27.366232
1.800000	27.366232
1.810000	27.366232
1.820000	27.366232
1.830000	27.366232
1.840000	27.366232
1.850000	27.366232
1.860000	27.366232
1.870000	27.366232
1.880000	27.366232
1.890000	27.366232
1.900000	27.366232
1.910000	27.366232
1.920000	27.366232
1.930000	27.366232
1.940000	27.366232
1.950000	27.366232
1.960000	27.366232
1.970000	27.366232
1.980000	27.366232
1.990000	27.366232
2.000000	29.637240
2.010000	29.637240
2.020000	29.637240
2.030000	29.637240
2.040000	29.637240
2.050000	29.637240
2.060000	29.637240
2.070000	29.637240
2.080000	29.637240
2.090000	29.637240
2.100000	29.637240
2.110000	29.637240
2.120000	29.637240
2.130000	29.637240
2.140000	29.637240
2.150000	29.637240
2.160000	29.637240
2.170000	29.637240
2.180000	29.637240
2.190000	29.637240
2.200000	29.637240
2.210000	29.637240
2.220000	29.637240
2.230000	29.637240
2.240000	29.637240
2.250000	29.637240
2.260000	29.637240
2.270000	29.637240
2.280000	29.637240
2.290000	29.637240
2.300000	29.637240
2.310000	29.637240
2.320000	29.637240
2.330000	29.637240
2.340000	29.637240
2.350000	29.637240
2.360000	29.637240
2.370000	29.637240
2.380000	29.637240
2.390000	29.637240
2.400000	29.637240
2.410000	29.637240
2.420000	29.637240
2.430000	29.637240
2.440000	29.637240
2.450000	29.637240
2.460000	29.637240
2.470000	29.637240
2.480000	29.637240
2.490000	29.637240
2.500000	32.483020
2.510000	32.483020
2.520000	32.483020
2.530000	32.483020
2.540000	32.483020
2.550000	32.483020
2.560000	32.483020
2.570000	32.483020
2.580000	32.483020
2.590000	32.483020
2.600000	32.483020
2.610000	32.483020
2.620000	32.483020
2.630000	32.483020
2.640000	32.483020
2.650000	32.483020
2.660000	32.483020
2.670000	32.483020
2.680000	32.483020
2.690000	32.483020
2.700000	32.483020
2.710000	32.483020
2.720000	32.483020
2.730000	32.483020
2.740000	32.483020
2.750000	32.483020
2.760000	32.483020
2.770000	32.483020
2.780000	32.483020
2.790000	32.483020
2.800000	32.483020
2.810000	32.483020
2.820000	32.483020
2.830000	32.483020
2.840000	32.483020
2.850000	32.483020
2.860000	32.483020
2.870000	32.483020
2.880000	32.483020
2.890000	32.483020
2.900000	32.483020
2.910000	32.483020
2.920000	32.483020
2.930000	32.483020
2.940000	32.483020
2.950000	32.483020
2.960000	32.483020
2.970000	32.483020
2.980000	32.483020
2.990000	32.483020
3.000000	35.762086
3.010000	35.762086
3.020000	35.762086
3.030000	35.762086
3.040000	35.762086
3.050000	35.762086
3.060000	35.762086
3.070000	35.762086
3.080000	35.762086
3.090000	35.762086
3.100000	35.762086
3.110000	35.762086
3.120000	35.762086
3.130000	35.762086
3.140000	35.762086
3.150000	35.762086
3.160000	35.762086
3.170000	35.762086
3.180000	35.762086
3.190000	35.762086
3.200000	35.762086
3.210000	35.762086
3.220000	35.762086
3.230000	35.762086
3.240000	35.762086
3.250000	35.762086
3.260000	35.762086
3.270000	35.762086
3.280000	35.762086
3.290000	35.762086
3.300000	35.762086
3.310000	35.762086
3.320000	35.762086
3.330000	35.762086
3.340000	35.762086
3.350000	35.762086
3.360000	35.762086
3.370000	35.762086
3.380000	35.762086
3.390000	35.762086
3.400000	35.762086
3.410000	35.762086
3.420000	35.762086
3.430000	35.762086
3.440000	35.762086
3.450000	35.762086
3.460000	35.762086
3.470000	35.762086
3.480000	35.762086
3.490000	35.762086
3.500000	39.285371
3.510000	39.285371
3.520000	39.285371
3.530000	39.285371
3.540000	39.285371
3.550000	39.285371
3.560000	39.285371
3.570000	39.285371
3.580000	39.285371
3.590000	39.285371
3.600000	39.285371
3.610000	39.285371
3.620000	39.285371
3.630000	39.285371
3.640000	39.285371
3.650000	39.285371
3.660000	39.285371
3.670000	39.285371
3.680000	39.285371
3.690000	39.285371
3.700000	39.285371
3.710000	39.285371
3.720000	39.285371
3.730000	39.285371
3.740000	39.285371
3.750000	39.285371
3.760000	39.285371
3.770000	39.285371
3.780000	39.285371
3.790000	39.285371
3.800000	39.285371
3.810000	39.285371
3.820000	39.285371
3.830000	39.285371
3.840000	39.285371
3.850000	39.285371
3.860000	39.285371
3.870000	39.285371
3.880000	39.285371
3.890000	39.285371
3.900000	39.285371
3.910000	39.285371
3.920000	39.285371
3.930000	39.285371
3.940000	39.285371
3.950000	39.285371
3.960000	39.285371
3.970000	39.285371
3.980000	39.285371
3.990000	39.285371
4.000000	42.362877
4.010000	42.362877
4.020000	42.362877
4.030000	42.362877
4.040000	42.362877
4.050000	42.362877
4.060000	42.362877
4.070000	42.362877
4.080000	42.362877
4.090000	42.362877
4.100000	42.362877
4.110000	42.362877
4.120000	42.362877
4.130000	42.362877
4.140000	42.362877
4.150000	42.362877
4.160000	42.362877
4.170000	42.362877
4.180000	42.362877
4.190000	42.362877
4.200000	42.362877
4.210000	42.362877
4.220000	42.362877
4.230000	42.362877
4.240000	42.362877
4.250000	42.362877
4.260000	42.362877
4.270000	42.362877
4.280000	42.362877
4.290000	42.362877
4.300000	42.362877
4.310000	42.362877
4.320000	42.362877
4.330000	42.362877
4.340000	42.362877
4.350000	42.362877
4.360000	42.362877
4.370000	42.362877
4.380000	42.362877
4.390000	42.362877
4.400000	42.362877
4.410000	42.362877
4.420000	42.362877
4.430000	42.362877
4.440000	42.362877
4.450000	42.362877
4.460000	42.362877
4.470000	42.362877
4.480000	42.362877
4.490000	42.362877
4.500000	44.683012
4.510000	44.683012
4.520000	44.683012
4.530000	44.683012
4.540000	44.683012
4.550000	44.683012
4.560000	44.683012
4.570000	44.683012
4.580000	44.683012
4.590000	44.683012
4.600000	44.683012
4.610000	44.683012
4.620000	44.683012
4.630000	44.683012
4.640000	44.683012
4.650000	44.683012
4.660000	44.683012
4.670000	44.683012
4.680000	44.683012
4.690000	44.683012
4.700000	44.683012
4.710000	44.683012
4.720000	44.683012
4.730000	44.683012
4.740000	44.683012
4.750000	44.683012
4.760000	44.683012
4.770000	44.683012
4.780000	44.683012
4.790000	44.683012
4.800000	44.683012
4.810000	44.683012
4.820000	44.683012
4.830000	44.683012
4.840000	44.683012
4.850000	44.683012
4.860000	44.683012
4.870000	44.683012
4.880000	44.683012
4.890000	44.683012
4.900000	44.683012
4.910000	44.683012
4.920000	44.683012
4.930000	44.683012
4.940000	44.683012
4.950000	44.683012
4.960000	44.683012
4.970000	44.683012
4.980000	44.683012
4.990000	44.683012
5.000000	46.362232
5.010000	46.362232
5.020000	46.362232
5.030000	46.362232
5.040000	46.362232
5.050000	46.362232
5.060000	46.362232
5.070000	46.362232
5.080000	46.362232
5.090000	46.362232
5.100000	46.362232
5.110000	46.362232
5.120000	46.362232
5.130000	46.362232
5.140000	46.362232
5.150000	46.362232
5.160000	46.362232
5.170000	46.362232
5.180000	46.362232
5.190000	46.362232
5.200000	46.362232
5.210000	46.362232
5.220000	46.362232
5.230000	46.362232
5.240000	46.362232
5.250000	46.362232
5.260000	46.362232
5.270000	46.362232
5.280000	46.362232
5.290000	46.362232
5.300000	46.362232
5.310000	46.362232
5.320000	46.362232
5.330000	46.362232
5.340000	46.362232
5.350000	46.362232
5.360000	46.362232
5.370000	46.362232
5.380000	46.362232
5.390000	46.362232
5.400000	46.362232
5.410000	46.362232
5.420000	46.362232
5.430000	46.362232
5.440000	46.362232
5.450000	46.362232
5.460000	46.362232
5.470000	46.362232
5.480000	46.362232
5.490000	46.362232
5.500000	47.553136
5.510000	47.553136
5.520000	47.553136
5.530000	47.553136
5.540000	47.553136
5.550000	47.553136
5.560000	47.553136
5.570000	47.553136
5.580000	47.553136
5.590000	47.553136
5.600000	47.553136
5.610000	47.553136
5.620000	47.553136
5.630000	47.553136
5.640000	47.553136
5.650000	47.553136
5.660000	47.553136
5.670000	47.553136
5.680000	47.553136
5.690000	47.553136
5.700000	47.553136
5.710000	47.553136
5.720000	47.553136
5.730000	47.553136
5.740000	47.553136
5.750000	47.553136
5.760000	47.553136
5.770000	47.553136
5.780000	47.553136
5.790000	47.553136
5.800000	47.553136
5.810000	47.553136
5.820000	47.553136
5.830000	47.553136
5.840000	47.553136
5.850000	47.553136
5.860000	47.553136
5.870000	47.553136
5.880000	47.553136
5.890000	47.553136
5.900000	47.553136
5.910000	47.553136
5.920000	47.553136
5.930000	47.553136
5.940000	47.553136
5.950000	47.553136
5.960000	47.553136
5.970000	47.553136
5.980000	47.553136
5.990000	47.553136
6.000000	48.351217
6.010000	48.351217
6.020000	48.351217
6.030000	48.351217
6.040000	48.351217
6.050000	48.351217
6.060000	48.351217
6.070000	48.351217
6.080000	48.351217
6.090000	48.351217
6.100000	48.351217
6.110000	48.351217
6.120000	48.351217
6.130000	48.351217
6.140000	48.351217
6.150000	48.351217
6.160000	48.351217
6.170000	48.351217
6.180000	48.351217
6.190000	48.351217
6.200000	48.351217
6.210000	48.351217
6.220000	48.351217
6.230000	48.351217
6.240000	48.351217
6.250000	48.351217
6.260000	48.351217
6.270000	48.351217
6.280000	48.351217
6.290000	48.351217
6.300000	48.351217
6.310000	48.351217
6.320000	48.351217
6.330000	48.351217
6.340000	48.351217
6.350000	48.351217
6.360000	48.351217
6.370000	48.351217
6.380000	48.351217
6.390000	48.351217
6.400000	48.351217
6.410000	48.351217
6.420000	48.351217
6.430000	48.351217
6.440000	48.351217
6.450000	48.351217
6.460000	48.351217
6.470000	48.351217
6.480000	48.351217
6.490000	48.351217
6.500000	48.851699
6.510000	48.851699
6.520000	48.851699
6.530000	48.851699
6.540000	48.851699
6.550000	48.851699
6.560000	48.851699
6.570000	48.851699
6.580000	48.851699
6.590000	48.851699
6.600000	48.851699
6.610000	48.851699
6.620000	48.851699
6.630000	48.851699
6.640000	48.851699
6.650000	48.851699
6.660000	48.851699
6.670000	48.851699
6.680000	48.851699
6.690000	48.851699
6.700000	48.851699
6.710000	48.851699
6.720000	48.851699
6.730000	48.851699
6.740000	48.851699
6.750000	48.851699
6.760000	48.851699
6.770000	48.851699
6.780000	48.851699
6.790000	48.851699
6.800000	48.851699
6.810000	48.851699
6.820000	48.851699
6.830000	48.851699
6.840000	48.851699
6.850000	48.851699
6.860000	48.851699
6.870000	48.851699
6.880000	48.851699
6.890000	48.851699
6.900000	48.851699
6.910000	48.851699
6.920000	48.851699
6.930000	48.851699
6.940000	48.851699
6.950000	48.851699
6.960000	48.851699
6.970000	48.851699
6.980000	48.851699
6.990000	48.851699
7.000000	49.130626
7.010000	49.130626
7.020000	49.130626
7.030000	49.130626
7.040000	49.130626
7.050000	49.130626
7.060000	49.130626
7.070000	49.130626
7.080000	49.130626
7.090000	49.130626
7.100000	49.130626
7.110000	49.130626
7.120000	49.130626
7.130000	49.130626
7.140000	49.130626
7.150000	49.130626
7.160000	49.130626
7.170000	49.130626
7.180000	49.130626
7.190000	49.130626
7.200000	49.130626
7.210000	49.130626
7.220000	49.130626
7.230000	49.130626
7.240000	49.130626
7.250000	49.130626
7.260000	49.130626
7.270000	49.130626
7.280000	49.130626
7.290000	49.130626
7.300000	49.130626
7.310000	49.130626
7.320000	49.130626
7.330000	49.130626
7.340000	49.130626
7.350000	49.130626
7.360000	49.130626
7.370000	49.130626
7.380000	49.130626
7.390000	49.130626
7.400000	49.130626
7.410000	49.130626
7.420000	49.130626
7.430000	49.130626
7.440000	49.130626
7.450000	49.130626
7.460000	49.130626
7.470000	49.130626
7.480000	49.130626
7.490000	49.130626
7.500000	49.226954
7.510000	49.226954
7.520000	49.226954
7.530000	49.226954
7.540000	49.226954
7.550000	49.226954
7.560000	49.226954
7.570000	49.226954
7.580000	49.226954
7.590000	49.226954
7.600000	49.226954
7.610000	49.226954
7.620000	49.226954
7.630000	49.226954
7.640000	49.226954
7.650000	49.226954
7.660000	49.226954
7.670000	49.226954
7.680000	49.226954
7.690000	49.226954
7.700000	49.226954
7.710000	49.226954
7.720000	49.226954
7.730000	49.226954
7.740000	49.226954
7.750000	49.226954
7.760000	49.226954
7.770000	49.226954
7.780000	49.226954
7.790000	49.226954
7.800000	49.226954
7.810000	49.226954
7.820000	49.226954
7.830000	49.226954
7.840000	49.226954
7.850000	49.226954
7.860000	49.226954
7.870000	49.226954
7.880000	49.226954
7.890000	49.226954
7.900000	49.226954
7.910000	49.226954
7.920000	49.226954
7.930000	49.226954
7.940000	49.226954
7.950000	49.226954
7.960000	49.226954
7.970000	49.226954
7.980000	49.226954
7.990000	49.226954
8.000000	49.171616
8.010000	49.171616
8.020000	49.171616
8.030000	49.171616
8.040000	49.171616
8.050000	49.171616
8.060000	49.171616
8.070000	49.171616
8.080000	49.171616
8.090000	49.171616
8.100000	49.171616
8.110000	49.171616
8.120000	49.171616
8.130000	49.171616
8.140000	49.171616
8.150000	49.171616
8.160000	49.171616
8.170000	49.171616
8.180000	49.171616
8.190000	49.171616
8.200000	49.171616
8.210000	49.171616
8.220000	49.171616
8.230000	49.171616
8.240000	49.171616
8.250000	49.171616
8.260000	49.171616
8.270000	49.171616
8.280000	49.171616
8.290000	49.171616
8.300000	49.171616
8.310000	49.171616
8.320000	49.171616
8.330000	49.171616
8.340000	49.171616
8.350000	49.171616
8.360000	49.171616
8.370000	49.171616
8.380000	49.171616
8.390000	49.171616
8.400000	49.171616
8.410000	49.171616
8.420000	49.171616
8.430000	49.171616
8.440000	49.171616
8.450000	49.171616
8.460000	49.171616
8.470000	49.171616
8.480000	49.171616
8.490000	49.171616
8.500000	49.025831
8.510000	49.025831
8.520000	49.025831
8.530000	49.025831
8.540000	49.025831
8.550000	49.025831
8.560000	49.025831
8.570000	49.025831
8.580000	49.025831
8.590000	49.025831
8.600000	49.025831
8.610000	49.025831
8.620000	49.025831
8.630000	49.025831
8.640000	49.025831
8.650000	49.025831
8.660000	49.025831
8.670000	49.025831
8.680000	49.025831
8.690000	49.025831
8.700000	49.025831
8.710000	49.025831
8.720000	49.025831
8.730000	49.025831
8.740000	49.025831
8.750000	49.025831
8.760000	49.025831
8.770000	49.025831
8.780000	49.025831
8.790000	49.025831
8.800000	49.025831
8.810000	49.025831
8.820000	49.025831
8.830000	49.025831
8.840000	49.025831
8.850000	49.025831
8.860000	49.025831
8.870000	49.025831
8.880000	49.025831
8.890000	49.025831
8.900000	49.025831
8.910000	49.025831
8.920000	49.025831
8.930000	49.025831
8.940000	49.025831
8.950000	49.025831
8.960000	49.025831
8.970000	49.025831
8.980000	49.025831
8.990000	49.025831
9.000000	48.795760
9.010000	48.795760
9.020000	48.795760
9.030000	48.795760
9.040000	48.795760
9.050000	48.795760
9.060000	48.795760
9.070000	48.795760
9.080000	48.795760
9.090000	48.795760
9.100000	48.795760
9.110000	48.795760
9.120000	48.795760
9.130000	48.795760
9.140000	48.795760
9.150000	48.795760
9.160000	48.795760
9.170000	48.795760
9.180000	48.795760
9.190000	48.795760
9.200000	48.795760
9.210000	48.795760
9.220000	48.795760
9.230000	48.795760
9.240000	48.795760
9.250000	48.795760
9.260000	48.795760
9.270000	48.795760
9.280000	48.795760
9.290000	48.795760
9.300000	48.795760
9.310000	48.795760
9.320000	48.795760
9.330000	48.795760
9.340000	48.795760
9.350000	48.795760
9.360000	48.795760
9.370000	48.795760
9.380000	48.795760
9.390000	48.795760
9.400000	48.795760
9.410000	48.795760
9.420000	48.795760
9.430000	48.795760
9.440000	48.795760
9.450000	48.795760
9.460000	48.795760
9.470000	48.795760
9.480000	48.795760
9.490000	48.795760
9.500000	48.499819
9.510000	48.499819
9.520000	48.499819
9.530000	48.499819
9.540000	48.499819
9.550000	48.499819
9.560000	48.499819
9.570000	48.499819
9.580000	48.499819
9.590000	48.499819
9.600000	48.499819
9.610000	48.499819
9.620000	48.499819
9.630000	48.499819
9.640000	48.499819
9.650000	48.499819
9.660000	48.499819
9.670000	48.499819
9.680000	48.499819
9.690000	48.499819
9.700000	48.499819
9.710000	48.499819
9.720000	48.499819
9.730000	48.499819
9.740000	48.499819
9.750000	48.499819
9.760000	48.499819
9.770000	48.499819
9.780000	48.499819
9.790000	48.499819
9.800000	48.499819
9.810000	48.499819
9.820000	48.499819
9.830000	48.499819
9.840000	48.499819
9.850000	48.499819
9.860000	48.499819
9.870000	48.499819
9.880000	48.499819
9.890000	48.499819
9.900000	48.499819
9.910000	48.499819
9.920000	48.499819
9.930000	48.499819
9.940000	48.499819
9.950000	48.499819
9.960000	48.499819
9.970000	48.499819
9.980000	48.499819
9.990000	48.499819
10.000000	48.156686
10.010000	48.156686
10.020000	48.156686
10.030000	48.156686
10.040000	48.156686
10.050000	48.156686
10.060000	48.156686
10.070000	48.156686
10.080000	48.156686
10.090000	48.156686
10.100000	48.156686
10.110000	48.156686
10.120000	48.156686
10.130000	48.156686
10.140000	48.156686
10.150000	48.156686
10.160000	48.156686
10.170000	48.156686
10.180000	48.156686
10.190000	48.156686
10.200000	48.156686
10.210000	48.156686
10.220000	48.156686
10.230000	48.156686
10.240000	48.156686
10.250000	48.156686
10.260000	48.156686
10.270000	48.156686
10.280000	48.156686
10.290000	48.156686
10.300000	48.156686
10.310000	48.156686
10.320000	48.156686
10.330000	48.156686
10.340000	48.156686
10.350000	48.156686
10.360000	48.156686
10.370000	48.156686
10.380000	48.156686
10.390000	48.156686
10.400000	48.156686
10.410000	48.156686
10.420000	48.156686
10.430000	48.156686
10.440000	48.156686
10.450000	48.156686
10.460000	48.156686
10.470000	48.156686
10.480000	48.156686
10.490000	48.156686
10.500000	47.780774
10.510000	47.780774
10.520000	47.780774
10.530000	47.780774
10.540000	47.780774
10.550000	47.780774
10.560000	47.780774
10.570000	47.780774
10.580000	47.780774
10.590000	47.780774
10.600000	47.780774
10.610000	47.780774
10.620000	47.780774
10.630000	47.780774
10.640000	47.780774
10.650000	47.780774
10.660000	47.780774
10.670000	47.780774
10.680000	47.780774
10.690000	47.780774
10.700000	47.780774
10.710000	47.780774
10.720000	47.780774
10.730000	47.780774
10.740000	47.780774
10.750000	47.780774
10.760000	47.780774
10.770000	47.780774
10.780000	47.780774
10.790000	47.780774
10.800000	47.780774
10.810000	47.780774
10.820000	47.780774
10.830000	47.780774
10.840000	47.780774
10.850000	47.780774
10.860000	47.780774
10.870000	47.780774
10.880000	47.780774
10.890000	47.780774
10.900000	47.780774
10.910000	47.780774
10.920000	47.780774
10.930000	47.780774
10.940000	47.780774
10.950000	47.780774
10.960000	47.780774
10.970000	47.780774
10.980000	47.780774
10.990000	47.780774
11.000000	47.382413
11.010000	47.382413
11.020000	47.382413
11.030000	47.382413
11.040000	47.382413
11.050000	47.382413
11.060000	47.382413
11.070000	47.382413
11.080000	47.382413
11.090000	47.382413
11.100000	47.382413
11.110000	47.382413
11.120000	47.382413
11.130000	47.382413
11.140000	47.382413
11.150000	47.382413
11.160000	47.382413
11.170000	47.382413
11.180000	47.382413
11.190000	47.382413
11.200000	47.382413
11.210000	47.382413
11.220000	47.382413
11.230000	47.382413
11.240000	47.382413
11.250000	47.382413
11.260000	47.382413
11.270000	47.382413
11.280000	47.382413
11.290000	47.382413
11.300000	47.382413
11.310000	47.382413
11.320000	47.382413
11.330000	47.382413
11.340000	47.382413
11.350000	47.382413
11.360000	47.382413
11.370000	47.382413
11.380000	47.382413
11.390000	47.382413
11.400000	47.382413
11.410000	47.382413
11.420000	47.382413
11.430000	47.382413
11.440000	47.382413
11.450000	47.382413
11.460000	47.382413
11.470000	47.382413
11.480000	47.382413
11.490000	47.382413
11.500000	46.971283
11.510000	46.971283
11.520000	46.971283
11.530000	46.971283
11.540000	46.971283
11.550000	46.971283
11.560000	46.971283
11.570000	46.971283
11.580000	46.971283
11.590000	46.971283
11.600000	46.971283
11.610000	46.971283
11.620000	46.971283
11.630000	46.971283
11.640000	46.971283
11.650000	46.971283
11.660000	46.971283
11.670000	46.971283
11.680000	46.971283
11.690000	46.971283
11.700000	46.971283
11.710000	46.971283
11.720000	46.971283
11.730000	46.971283
11.740000	46.971283
11.750000	46.971283
11.760000	46.971283
11.770000	46.971283
11.780000	46.971283
11.790000	46.971283
11.800000	46.971283
11.810000	46.971283
11.820000	46.971283
11.830000	46.971283
11.840000	46.971283
11.850000	46.971283
11.860000	46.971283
11.870000	46.971283
11.880000	46.971283
11.890000	46.971283
11.900000	46.971283
11.910000	46.971283
11.920000	46.971283
11.930000	46.971283
11.940000	46.971283
11.950000	46.971283
11.960000	46.971283
11.970000	46.971283
11.980000	46.971283
11.990000	46.971283
12.000000	46.552606
12.010000	46.552606
12.020000	46.552606
12.030000	46.552606
12.040000	46.552606
12.050000	46.552606
12.060000	46.552606
12.070000	46.552606
12.080000	46.552606
12.090000	46.552606
12.100000	46.552606
12.110000	46.552606
12.120000	46.552606
12.130000	46.552606
12.140000	46.552606
12.150000	46.552606
12.160000	46.552606
12.170000	46.552606
12.180000	46.552606
12.190000	46.552606
12.200000	46.552606
12.210000	46.552606
12.220000	46.552606
12.230000	46.552606
12.240000	46.552606
12.250000	46.552606
12.260000	46.552606
12.270000	46.552606
12.280000	46.552606
12.290000	46.552606
12.300000	46.552606
12.310000	46.552606
12.320000	46.552606
12.330000	46.552606
12.340000	46.552606
12.350000	46.552606
12.360000	46.552606
12.370000	46.552606
12.380000	46.552606
12.390000	46.552606
12.400000	46.552606
12.410000	46.552606
12.420000	46.552606
12.430000	46.552606
12.440000	46.552606
12.450000	46.552606
12.460000	46.552606
12.470000	46.552606
12.480000	46.552606
12.490000	46.552606
12.500000	46.130422
12.510000	46.130422
12.520000	46.130422
12.530000	46.130422
12.540000	46.130422
12.550000	46.130422
12.560000	46.130422
12.570000	46.130422
12.580000	46.130422
12.590000	46.130422
12.600000	46.130422
12.610000	46.130422
12.620000	46.130422
12.630000	46.130422
12.640000	46.130422
12.650000	46.130422
12.660000	46.130422
12.670000	46.130422
12.680000	46.130422
12.690000	46.130422
12.700000	46.130422
12.710000	46.130422
12.720000	46.130422
12.730000	46.130422
12.740000	46.130422
12.750000	46.130422
12.760000	46.130422
12.770000	46.130422
12.780000	46.130422
12.790000	46.130422
12.800000	46.130422
12.810000	46.130422
12.820000	46.130422
12.830000	46.130422
12.840000	46.130422
12.850000	46.130422
12.860000	46.130422
12.870000	46.130422
12.880000	46.130422
12.890000	46.130422
12.900000	46.130422
12.910000	46.130422
12.920000	46.130422
12.930000	46.130422
12.940000	46.130422
12.950000	46.130422
12.960000	46.130422
12.970000	46.130422
12.980000	46.130422
12.990000	46.130422
13.000000	45.709819
13.010000	45.709819
13.020000	45.709819
13.030000	45.709819
13.040000	45.709819
13.050000	45.709819
13.060000	45.709819
13.070000	45.709819
13.080000	45.709819
13.090000	45.709819
13.100000	45.709819
13.110000	45.709819
13.120000	45.709819
13.130000	45.709819
13.140000	45.709819
13.150000	45.709819
13.160000	45.709819
13.170000	45.709819
13.180000	45.709819
13.190000	45.709819
13.200000	45.709819
13.210000	45.709819
13.220000	45.709819
13.230000	45.709819
13.240000	45.709819
13.250000	45.709819
13.260000	45.709819
13.270000	45.709819
13.280000	45.709819
13.290000	45.709819
13.300000	45.709819
13.310000	45.709819
13.320000	45.709819
13.330000	45.709819
13.340000	45.709819
13.350000	45.709819
13.360000	45.709819
13.370000	45.709819
13.380000	45.709819
13.390000	45.709819
13.400000	45.709819
13.410000	45.709819
13.420000	45.709819
13.430000	45.709819
13.440000	45.709819
13.450000	45.709819
13.460000	45.709819
13.470000	45.709819
13.480000	45.709819
13.490000	45.709819
13.500000	45.292573
13.510000	45.292573
13.520000	45.292573
13.530000	45.292573
13.540000	45.292573
13.550000	45.292573
13.560000	45.292573
13.570000	45.292573
13.580000	45.292573
13.590000	45.292573
13.600000	45.292573
13.610000	45.292573
13.620000	45.292573
13.630000	45.292573
13.640000	45.292573
13.650000	45.292573
13.660000	45.292573
13.670000	45.292573
13.680000	45.292573
13.690000	45.292573
13.700000	45.292573
13.710000	45.292573
13.720000	45.292573
13.730000	45.292573
13.740000	45.292573
13.750000	45.292573
13.760000	45.292573
13.770000	45.292573
13.780000	45.292573
13.790000	45.292573
13.800000	45.292573
13.810000	45.292573
13.820000	45.292573
13.830000	45.292573
13.840000	45.292573
13.850000	45.292573
13.860000	45.292573
13.870000	45.292573
13.880000	45.292573
13.890000	45.292573
13.900000	45.292573
13.910000	45.292573
13.920000	45.292573
13.930000	45.292573
13.940000	45.292573
13.950000	45.292573
13.960000	45.292573
13.970000	45.292573
13.980000	45.292573
13.990000	45.292573
14.000000	44.872042
14.010000	44.872042
14.020000	44.872042
14.030000	44.872042
14.040000	44.872042
14.050000	44.872042
14.060000	44.872042
14.070000	44.872042
14.080000	44.872042
14.090000	44.872042
14.100000	44.872042
14.110000	44.872042
14.120000	44.872042
14.130000	44.872042
14.140000	44.872042
14.150000	44.872042
14.160000	44.872042
14.170000	44.872042
14.180000	44.872042
14.190000	44.872042
14.200000	44.872042
14.210000	44.872042
14.220000	44.872042
14.230000	44.872042
14.240000	44.872042
14.250000	44.872042
14.260000	44.872042
14.270000	44.872042
14.280000	44.872042
14.290000	44.872042
14.300000	44.872042
14.310000	44.872042
14.320000	44.872042
14.330000	44.872042
14.340000	44.872042
14.350000	44.872042
14.360000	44.872042
14.370000	44.872042
14.380000	44.872042
14.390000	44.872042
14.400000	44.872042
14.410000	44.872042
14.420000	44.872042
14.430000	44.872042
14.440000	44.872042
14.450000	44.872042
14.460000	44.872042
14.470000	44.872042
14.480000	44.872042
14.490000	44.872042
14.500000	44.452688
14.510000	44.452688
14.520000	44.452688
14.530000	44.452688
14.540000	44.452688
14.550000	44.452688
14.560000	44.452688
14.570000	44.452688
14.580000	44.452688
14.590000	44.452688
14.600000	44.452688
14.610000	44.452688
14.620000	44.452688
14.630000	44.452688
14.640000	44.452688
14.650000	44.452688
14.660000	44.452688
14.670000	44.452688
14.680000	44.452688
14.690000	44.452688
14.700000	44.452688
14.710000	44.452688
14.720000	44.452688
14.730000	44.452688
14.740000	44.452688
14.750000	44.452688
14.760000	44.452688
14.770000	44.452688
14.780000	44.452688
14.790000	44.452688
14.800000	44.452688
14.810000	44.452688
14.820000	44.452688
14.830000	44.452688
14.840000	44.452688
14.850000	44.452688
14.860000	44.452688
14.870000	44.452688
14.880000	44.452688
14.890000	44.452688
14.900000	44.452688
14.910000	44.452688
14.920000	44.452688
14.930000	44.452688
14.940000	44.452688
14.950000	44.452688
14.960000	44.452688
14.970000	44.452688
14.980000	44.452688
14.990000	44.452688
15.000000	44.045613
15.010000	44.045613
15.020000	44.045613
15.030000	44.045613
15.040000	44.045613
15.050000	44.045613
15.060000	44.045613
15.070000	44.045613
15.080000	44.045613
15.090000	44.045613
15.100000	44.045613
15.110000	44.045613
15.120000	44.045613
15.130000	44.045613
15.140000	44.045613
15.150000	44.045613
15.160000	44.045613
15.170000	44.045613
15.180000	44.045613
15.190000	44.045613
15.200000	44.045613
15.210000	44.045613
15.220000	44.045613
15.230000	44.045613
15.240000	44.045613
15.250000	44.045613
15.260000	44.045613
15.270000	44.045613
15.280000	44.045613
15.290000	44.045613
15.300000	44.045613
15.310000	44.045613
15.320000	44.045613
15.330000	44.045613
15.340000	44.045613
15.350000	44.045613
15.360000	44.045613
15.370000	44.045613
15.380000	44.045613
15.390000	44.045613
15.400000	44.045613
15.410000	44.045613
15.420000	44.045613
15.430000	44.045613
15.440000	44.045613
15.450000	44.045613
15.460000	44.045613
15.470000	44.045613
15.480000	44.045613
15.490000	44.045613
15.500000	43.639384
15.510000	43.639384
15.520000	43.639384
15.530000	43.639384
15.540000	43.639384
15.550000	43.639384
15.560000	43.639384
15.570000	43.639384
15.580000	43.639384
15.590000	43.639384
15.600000	43.639384
15.610000	43.639384
15.620000	43.639384
15.630000	43.639384
15.640000	43.639384
15.650000	43.639384
15.660000	43.639384
15.670000	43.639384
15.680000	43.639384
15.690000	43.639384
15.700000	43.639384
15.710000	43.639384
15.720000	43.639384
15.730000	43.639384
15.740000	43.639384
15.750000	43.639384
15.760000	43.639384
15.770000	43.639384
15.780000	43.639384
15.790000	43.639384
15.800000	43.639384
15.810000	43.639384
15.820000	43.639384
15.830000	43.639384
15.840000	43.639384
15.850000	43.639384
15.860000	43.639384
15.870000	43.639384
15.880000	43.639384
15.890000	43.639384
15.900000	43.639384
15.910000	43.639384
15.920000	43.639384
15.930000	43.639384
15.940000	43.639384
15.950000	43.639384
15.960000	43.639384
15.970000	43.639384
15.980000	43.639384
15.990000	43.639384
16.000000	43.247886
16.010000	43.247886
16.020000	43.247886
16.030000	43.247886
16.040000	43.247886
16.050000	43.247886
16.060000	43.247886
16.070000	43.247886
16.080000	43.247886
16.090000	43.247886
16.100000	43.247886
16.110000	43.247886
16.120000	43.247886
16.130000	43.247886
16.140000	43.247886
16.150000	43.247886
16.160000	43.247886
16.170000	43.247886
16.180000	43.247886
16.190000	43.247886
16.200000	43.247886
16.210000	43.247886
16.220000	43.247886
16.230000	43.247886
16.240000	43.247886
16.250000	43.247886
16.260000	43.247886
16.270000	43.247886
16.280000	43.247886
16.290000	43.247886
16.300000	43.247886
16.310000	43.247886
16.320000	43.247886
16.330000	43.247886
16.340000	43.247886
16.350000	43.247886
16.360000	43.247886
16.370000	43.247886
16.380000	43.247886
16.390000	43.247886
16.400000	43.247886
16.410000	43.247886
16.420000	43.247886
16.430000	43.247886
16.440000	43.247886
16.450000	43.247886
16.460000	43.247886
16.470000	43.247886
16.480000	43.247886
16.490000	43.247886
16.500000	42.871078
16.510000	42.871078
16.520000	42.871078
16.530000	42.871078
16.540000	42.871078
16.550000	42.871078
16.560000	42.871078
16.570000	42.871078
16.580000	42.871078
16.590000	42.871078
16.600000	42.871078
16.610000	42.871078
16.620000	42.871078
16.630000	42.871078
16.640000	42.871078
16.650000	42.871078
16.660000	42.871078
16.670000	42.871078
16.680000	42.871078
16.690000	42.871078
16.700000	42.871078
16.710000	42.871078
16.720000	42.871078
16.730000	42.871078
16.740000	42.871078
16.750000	42.871078
16.760000	42.871078
16.770000	42.871078
16.780000	42.871078
16.790000	42.871078
16.800000	42.871078
16.810000	42.871078
16.820000	42.871078
16.830000	42.871078
16.840000	42.871078
16.850000	42.871078
16.860000	42.871078
16.870000	42.871078
16.880000	42.871078
16.890000	42.871078
16.900000	42.871078
16.910000	42.871078
16.920000	42.871078
16.930000	42.871078
16.940000	42.871078
16.950000	42.871078
16.960000	42.871078
16.970000	42.871078
16.980000	42.871078
16.990000	42.871078
17.000000	42.506510
17.010000	42.506510
17.020000	42.506510
17.030000	42.506510
17.040000	42.506510
17.050000	42.506510
17.060000	42.506510
17.070000	42.506510
17.080000	42.506510
17.090000	42.506510
17.100000	42.506510
17.110000	42.506510
17.120000	42.506510
17.130000	42.506510
17.140000	42.506510
17.150000	42.506510
17.160000	42.506510
17.170000	42.506510
17.180000	42.506510
17.190000	42.506510
17.200000	42.506510
17.210000	42.506510
17.220000	42.506510
17.230000	42.506510
17.240000	42.506510
17.250000	42.506510
17.260000	42.506510
17.270000	42.506510
17.280000	42.506510
17.290000	42.506510
17.300000	42.506510
17.310000	42.506510
17.320000	42.506510
17.330000	42.506510
17.340000	42.506510
17.350000	42.506510
17.360000	42.506510
17.370000	42.506510
17.380000	42.506510
17.390000	42.506510
17.400000	42.506510
17.410000	42.506510
17.420000	42.506510
17.430000	42.506510
17.440000	42.506510
17.450000	42.506510
17.460000	42.506510
17.470000	42.506510
17.480000	42.506510
17.490000	42.506510
17.500000	42.148116
17.510000	42.148116
17.520000	42.148116
17.530000	42.148116
17.540000	42.148116
17.550000	42.148116
17.560000	42.148116
17.570000	42.148116
17.580000	42.148116
17.590000	42.148116
17.600000	42.148116
17.610000	42.148116
17.620000	42.148116
17.630000	42.148116
17.640000	42.148116
17.650000	42.148116
17.660000	42.148116
17.670000	42.148116
17.680000	42.148116
17.690000	42.148116
17.700000	42.148116
17.710000	42.148116
17.720000	42.148116
17.730000	42.148116
17.740000	42.148116
17.750000	42.148116
17.760000	42.148116
17.770000	42.148116
17.780000	42.148116
17.790000	42.148116
17.800000	42.148116
17.810000	42.148116
17.820000	42.148116
17.830000	42.148116
17.840000	42.148116
17.850000	42.148116
17.860000	42.148116
17.870000	42.148116
17.880000	42.148116
17.890000	42.148116
17.900000	42.148116
17.910000	42.148116
17.920000	42.148116
17.930000	42.148116
17.940000	42.148116
17.950000	42.148116
17.960000	42.148116
17.970000	42.148116
17.980000	42.148116
17.990000	42.148116
