LabVIEW Measurement	
Writer_Version	2
Reader_Version	2
Separator	Tab
Decimal_Separator	.
Multi_Headings	No
X_Columns	One
Time_Pref	Absolute
Operator	biomech-dyno
Date	2023/05/24
Time	15:19:49.9492761999999796612
***End_of_Header***	
	
Channels	1	
Samples	10	
Date	2023/05/24	
Time	15:55:02.6950893999995934834	
X_Dimension	Time	
X0	0.0000000000000000E+0	
Delta_X	0.010000	
***End_of_Header***		
X_Value	Untitled	Comment
0.000000	25.166220
0.010000	25.166220
0.020000	25.166220
0.030000	25.166220
0.040000	25.166220
0.050000	25.166220
0.060000	25.166220
0.070000	25.166220
0.080000	25.166220
0.090000	25.166220
0.100000	25.166220
0.110000	25.166220
0.120000	25.166220
0.130000	25.166220
0.140000	25.166220
0.150000	25.166220
0.160000	25.166220
0.170000	25.166220
0.180000	25.166220
0.190000	25.166220
0.200000	25.166220
0.210000	25.166220
0.220000	25.166220
0.230000	25.166220
0.240000	25.166220
0.250000	25.166220
0.260000	25.166220
0.270000	25.166220
0.280000	25.166220
0.290000	25.166220
0.300000	25.166220
0.310000	25.166220
0.320000	25.166220
0.330000	25.166220
0.340000	25.166220
0.350000	25.166220
0.360000	25.166220
0.370000	25.166220
0.380000	25.166220
0.390000	25.166220
0.400000	25.166220
0.410000	25.166220
0.420000	25.166220
0.430000	25.166220
0.440000	25.166220
0.450000	25.166220
0.460000	25.166220
0.470000	25.166220
0.480000	25.166220
0.490000	25.166220
0.500000	25.240860
0.510000	25.240860
0.520000	25.240860
0.530000	25.240860
0.540000	25.240860
0.550000	25.240860
0.560000	25.240860
0.570000	25.240860
0.580000	25.240860
0.590000	25.240860
0.600000	25.240860
0.610000	25.240860
0.620000	25.240860
0.630000	25.240860
0.640000	25.240860
0.650000	25.240860
0.660000	25.240860
0.670000	25.240860
0.680000	25.240860
0.690000	25.240860
0.700000	25.240860
0.710000	25.240860
0.720000	25.240860
0.730000	25.240860
0.740000	25.240860
0.750000	25.240860
0.760000	25.240860
0.770000	25.240860
0.780000	25.240860
0.790000	25.240860
0.800000	25.240860
0.810000	25.240860
0.820000	25.240860
0.830000	25.240860
0.840000	25.240860
0.850000	25.240860
0.860000	25.240860
0.870000	25.240860
0.880000	25.240860
0.890000	25.240860
0.900000	25.240860
0.910000	25.240860
0.920000	25.240860
0.930000	25.240860
0.940000	25.240860
0.950000	25.240860
0.960000	25.240860
0.970000	25.240860
0.980000	25.240860
0.990000	25.240860
1.000000	26.019579
1.010000	26.019579
1.020000	26.019579
1.030000	26.019579
1.040000	26.019579
1.050000	26.019579
1.060000	26.019579
1.070000	26.019579
1.080000	26.019579
1.090000	26.019579
1.100000	26.019579
1.110000	26.019579
1.120000	26.019579
1.130000	26.019579
1.140000	26.019579
1.150000	26.019579
1.160000	26.019579
1.170000	26.019579
1.180000	26.019579
1.190000	26.019579
1.200000	26.019579
1.210000	26.019579
1.220000	26.019579
1.230000	26.019579
1.240000	26.019579
1.250000	26.019579
1.260000	26.019579
1.270000	26.019579
1.280000	26.019579
1.290000	26.019579
1.300000	26.019579
1.310000	26.019579
1.320000	26.019579
1.330000	26.019579
1.340000	26.019579
1.350000	26.019579
1.360000	26.019579
1.370000	26.019579
1.380000	26.019579
1.390000	26.019579
1.400000	26.019579
1.410000	26.019579
1.420000	26.019579
1.430000	26.019579
1.440000	26.019579
1.450000	26.019579
1.460000	26.019579
1.470000	26.019579
1.480000	26.019579
1.490000	26.019579
1.500000	27.845710
1.510000	27.845710
1.520000	27.845710
1.530000	27.845710
1.540000	27.845710
1.550000	27.845710
1.560000	27.845710
1.570000	27.845710
1.580000	27.845710
1.590000	27.845710
1.600000	27.845710
1.610000	27.845710
1.620000	27.845710
1.630000	27.845710
1.640000	27.845710
1.650000	27.845710
1.660000	27.845710
1.670000	27.845710
1.680000	27.845710
1.690000	27.845710
1.700000	27.845710
1.710000	27.845710
1.720000	27.845710
1.730000	27.845710
1.740000	27.845710
1.750000	27.845710
1.760000	27.845710
1.770000	27.845710
1.780000	27.845710
1.790000	27.845710
1.800000	27.845710
1.810000	27.845710
1.820000	27.845710
1.830000	27.845710
1.840000	27.845710
1.850000	27.845710
1.860000	27.845710
1.870000	27.845710
1.880000	27.845710
1.890000	27.845710
1.900000	27.845710
1.910000	27.845710
1.920000	27.845710
1.930000	27.845710
1.940000	27.845710
1.950000	27.845710
1.960000	27.845710
1.970000	27.845710
1.980000	27.845710
1.990000	27.845710
2.000000	30.526699
2.010000	30.526699
2.020000	30.526699
2.030000	30.526699
2.040000	30.526699
2.050000	30.526699
2.060000	30.526699
2.070000	30.526699
2.080000	30.526699
2.090000	30.526699
2.100000	30.526699
2.110000	30.526699
2.120000	30.526699
2.130000	30.526699
2.140000	30.526699
2.150000	30.526699
2.160000	30.526699
2.170000	30.526699
2.180000	30.526699
2.190000	30.526699
2.200000	30.526699
2.210000	30.526699
2.220000	30.526699
2.230000	30.526699
2.240000	30.526699
2.250000	30.526699
2.260000	30.526699
2.270000	30.526699
2.280000	30.526699
2.290000	30.526699
2.300000	30.526699
2.310000	30.526699
2.320000	30.526699
2.330000	30.526699
2.340000	30.526699
2.350000	30.526699
2.360000	30.526699
2.370000	30.526699
2.380000	30.526699
2.390000	30.526699
2.400000	30.526699
2.410000	30.526699
2.420000	30.526699
2.430000	30.526699
2.440000	30.526699
2.450000	30.526699
2.460000	30.526699
2.470000	30.526699
2.480000	30.526699
2.490000	30.526699
2.500000	33.899058
2.510000	33.899058
2.520000	33.899058
2.530000	33.899058
2.540000	33.899058
2.550000	33.899058
2.560000	33.899058
2.570000	33.899058
2.580000	33.899058
2.590000	33.899058
2.600000	33.899058
2.610000	33.899058
2.620000	33.899058
2.630000	33.899058
2.640000	33.899058
2.650000	33.899058
2.660000	33.899058
2.670000	33.899058
2.680000	33.899058
2.690000	33.899058
2.700000	33.899058
2.710000	33.899058
2.720000	33.899058
2.730000	33.899058
2.740000	33.899058
2.750000	33.899058
2.760000	33.899058
2.770000	33.899058
2.780000	33.899058
2.790000	33.899058
2.800000	33.899058
2.810000	33.899058
2.820000	33.899058
2.830000	33.899058
2.840000	33.899058
2.850000	33.899058
2.860000	33.899058
2.870000	33.899058
2.880000	33.899058
2.890000	33.899058
2.900000	33.899058
2.910000	33.899058
2.920000	33.899058
2.930000	33.899058
2.940000	33.899058
2.950000	33.899058
2.960000	33.899058
2.970000	33.899058
2.980000	33.899058
2.990000	33.899058
3.000000	37.766012
3.010000	37.766012
3.020000	37.766012
3.030000	37.766012
3.040000	37.766012
3.050000	37.766012
3.060000	37.766012
3.070000	37.766012
3.080000	37.766012
3.090000	37.766012
3.100000	37.766012
3.110000	37.766012
3.120000	37.766012
3.130000	37.766012
3.140000	37.766012
3.150000	37.766012
3.160000	37.766012
3.170000	37.766012
3.180000	37.766012
3.190000	37.766012
3.200000	37.766012
3.210000	37.766012
3.220000	37.766012
3.230000	37.766012
3.240000	37.766012
3.250000	37.766012
3.260000	37.766012
3.270000	37.766012
3.280000	37.766012
3.290000	37.766012
3.300000	37.766012
3.310000	37.766012
3.320000	37.766012
3.330000	37.766012
3.340000	37.766012
3.350000	37.766012
3.360000	37.766012
3.370000	37.766012
3.380000	37.766012
3.390000	37.766012
3.400000	37.766012
3.410000	37.766012
3.420000	37.766012
3.430000	37.766012
3.440000	37.766012
3.450000	37.766012
3.460000	37.766012
3.470000	37.766012
3.480000	37.766012
3.490000	37.766012
3.500000	41.841346
3.510000	41.841346
3.520000	41.841346
3.530000	41.841346
3.540000	41.841346
3.550000	41.841346
3.560000	41.841346
3.570000	41.841346
3.580000	41.841346
3.590000	41.841346
3.600000	41.841346
3.610000	41.841346
3.620000	41.841346
3.630000	41.841346
3.640000	41.841346
3.650000	41.841346
3.660000	41.841346
3.670000	41.841346
3.680000	41.841346
3.690000	41.841346
3.700000	41.841346
3.710000	41.841346
3.720000	41.841346
3.730000	41.841346
3.740000	41.841346
3.750000	41.841346
3.760000	41.841346
3.770000	41.841346
3.780000	41.841346
3.790000	41.841346
3.800000	41.841346
3.810000	41.841346
3.820000	41.841346
3.830000	41.841346
3.840000	41.841346
3.850000	41.841346
3.860000	41.841346
3.870000	41.841346
3.880000	41.841346
3.890000	41.841346
3.900000	41.841346
3.910000	41.841346
3.920000	41.841346
3.930000	41.841346
3.940000	41.841346
3.950000	41.841346
3.960000	41.841346
3.970000	41.841346
3.980000	41.841346
3.990000	41.841346
4.000000	45.264756
4.010000	45.264756
4.020000	45.264756
4.030000	45.264756
4.040000	45.264756
4.050000	45.264756
4.060000	45.264756
4.070000	45.264756
4.080000	45.264756
4.090000	45.264756
4.100000	45.264756
4.110000	45.264756
4.120000	45.264756
4.130000	45.264756
4.140000	45.264756
4.150000	45.264756
4.160000	45.264756
4.170000	45.264756
4.180000	45.264756
4.190000	45.264756
4.200000	45.264756
4.210000	45.264756
4.220000	45.264756
4.230000	45.264756
4.240000	45.264756
4.250000	45.264756
4.260000	45.264756
4.270000	45.264756
4.280000	45.264756
4.290000	45.264756
4.300000	45.264756
4.310000	45.264756
4.320000	45.264756
4.330000	45.264756
4.340000	45.264756
4.350000	45.264756
4.360000	45.264756
4.370000	45.264756
4.380000	45.264756
4.390000	45.264756
4.400000	45.264756
4.410000	45.264756
4.420000	45.264756
4.430000	45.264756
4.440000	45.264756
4.450000	45.264756
4.460000	45.264756
4.470000	45.264756
4.480000	45.264756
4.490000	45.264756
4.500000	47.835000
4.510000	47.835000
4.520000	47.835000
4.530000	47.835000
4.540000	47.835000
4.550000	47.835000
4.560000	47.835000
4.570000	47.835000
4.580000	47.835000
4.590000	47.835000
4.600000	47.835000
4.610000	47.835000
4.620000	47.835000
4.630000	47.835000
4.640000	47.835000
4.650000	47.835000
4.660000	47.835000
4.670000	47.835000
4.680000	47.835000
4.690000	47.835000
4.700000	47.835000
4.710000	47.835000
4.720000	47.835000
4.730000	47.835000
4.740000	47.835000
4.750000	47.835000
4.760000	47.835000
4.770000	47.835000
4.780000	47.835000
4.790000	47.835000
4.800000	47.835000
4.810000	47.835000
4.820000	47.835000
4.830000	47.835000
4.840000	47.835000
4.850000	47.835000
4.860000	47.835000
4.870000	47.835000
4.880000	47.835000
4.890000	47.835000
4.900000	47.835000
4.910000	47.835000
4.920000	47.835000
4.930000	47.835000
4.940000	47.835000
4.950000	47.835000
4.960000	47.835000
4.970000	47.835000
4.980000	47.835000
4.990000	47.835000
5.000000	49.699064
5.010000	49.699064
5.020000	49.699064
5.030000	49.699064
5.040000	49.699064
5.050000	49.699064
5.060000	49.699064
5.070000	49.699064
5.080000	49.699064
5.090000	49.699064
5.100000	49.699064
5.110000	49.699064
5.120000	49.699064
5.130000	49.699064
5.140000	49.699064
5.150000	49.699064
5.160000	49.699064
5.170000	49.699064
5.180000	49.699064
5.190000	49.699064
5.200000	49.699064
5.210000	49.699064
5.220000	49.699064
5.230000	49.699064
5.240000	49.699064
5.250000	49.699064
5.260000	49.699064
5.270000	49.699064
5.280000	49.699064
5.290000	49.699064
5.300000	49.699064
5.310000	49.699064
5.320000	49.699064
5.330000	49.699064
5.340000	49.699064
5.350000	49.699064
5.360000	49.699064
5.370000	49.699064
5.380000	49.699064
5.390000	49.699064
5.400000	49.699064
5.410000	49.699064
5.420000	49.699064
5.430000	49.699064
5.440000	49.699064
5.450000	49.699064
5.460000	49.699064
5.470000	49.699064
5.480000	49.699064
5.490000	49.699064
5.500000	51.030958
5.510000	51.030958
5.520000	51.030958
5.530000	51.030958
5.540000	51.030958
5.550000	51.030958
5.560000	51.030958
5.570000	51.030958
5.580000	51.030958
5.590000	51.030958
5.600000	51.030958
5.610000	51.030958
5.620000	51.030958
5.630000	51.030958
5.640000	51.030958
5.650000	51.030958
5.660000	51.030958
5.670000	51.030958
5.680000	51.030958
5.690000	51.030958
5.700000	51.030958
5.710000	51.030958
5.720000	51.030958
5.730000	51.030958
5.740000	51.030958
5.750000	51.030958
5.760000	51.030958
5.770000	51.030958
5.780000	51.030958
5.790000	51.030958
5.800000	51.030958
5.810000	51.030958
5.820000	51.030958
5.830000	51.030958
5.840000	51.030958
5.850000	51.030958
5.860000	51.030958
5.870000	51.030958
5.880000	51.030958
5.890000	51.030958
5.900000	51.030958
5.910000	51.030958
5.920000	51.030958
5.930000	51.030958
5.940000	51.030958
5.950000	51.030958
5.960000	51.030958
5.970000	51.030958
5.980000	51.030958
5.990000	51.030958
6.000000	51.949601
6.010000	51.949601
6.020000	51.949601
6.030000	51.949601
6.040000	51.949601
6.050000	51.949601
6.060000	51.949601
6.070000	51.949601
6.080000	51.949601
6.090000	51.949601
6.100000	51.949601
6.110000	51.949601
6.120000	51.949601
6.130000	51.949601
6.140000	51.949601
6.150000	51.949601
6.160000	51.949601
6.170000	51.949601
6.180000	51.949601
6.190000	51.949601
6.200000	51.949601
6.210000	51.949601
6.220000	51.949601
6.230000	51.949601
6.240000	51.949601
6.250000	51.949601
6.260000	51.949601
6.270000	51.949601
6.280000	51.949601
6.290000	51.949601
6.300000	51.949601
6.310000	51.949601
6.320000	51.949601
6.330000	51.949601
6.340000	51.949601
6.350000	51.949601
6.360000	51.949601
6.370000	51.949601
6.380000	51.949601
6.390000	51.949601
6.400000	51.949601
6.410000	51.949601
6.420000	51.949601
6.430000	51.949601
6.440000	51.949601
6.450000	51.949601
6.460000	51.949601
6.470000	51.949601
6.480000	51.949601
6.490000	51.949601
6.500000	52.514527
6.510000	52.514527
6.520000	52.514527
6.530000	52.514527
6.540000	52.514527
6.550000	52.514527
6.560000	52.514527
6.570000	52.514527
6.580000	52.514527
6.590000	52.514527
6.600000	52.514527
6.610000	52.514527
6.620000	52.514527
6.630000	52.514527
6.640000	52.514527
6.650000	52.514527
6.660000	52.514527
6.670000	52.514527
6.680000	52.514527
6.690000	52.514527
6.700000	52.514527
6.710000	52.514527
6.720000	52.514527
6.730000	52.514527
6.740000	52.514527
6.750000	52.514527
6.760000	52.514527
6.770000	52.514527
6.780000	52.514527
6.790000	52.514527
6.800000	52.514527
6.810000	52.514527
6.820000	52.514527
6.830000	52.514527
6.840000	52.514527
6.850000	52.514527
6.860000	52.514527
6.870000	52.514527
6.880000	52.514527
6.890000	52.514527
6.900000	52.514527
6.910000	52.514527
6.920000	52.514527
6.930000	52.514527
6.940000	52.514527
6.950000	52.514527
6.960000	52.514527
6.970000	52.514527
6.980000	52.514527
6.990000	52.514527
7.000000	52.818235
7.010000	52.818235
7.020000	52.818235
7.030000	52.818235
7.040000	52.818235
7.050000	52.818235
7.060000	52.818235
7.070000	52.818235
7.080000	52.818235
7.090000	52.818235
7.100000	52.818235
7.110000	52.818235
7.120000	52.818235
7.130000	52.818235
7.140000	52.818235
7.150000	52.818235
7.160000	52.818235
7.170000	52.818235
7.180000	52.818235
7.190000	52.818235
7.200000	52.818235
7.210000	52.818235
7.220000	52.818235
7.230000	52.818235
7.240000	52.818235
7.250000	52.818235
7.260000	52.818235
7.270000	52.818235
7.280000	52.818235
7.290000	52.818235
7.300000	52.818235
7.310000	52.818235
7.320000	52.818235
7.330000	52.818235
7.340000	52.818235
7.350000	52.818235
7.360000	52.818235
7.370000	52.818235
7.380000	52.818235
7.390000	52.818235
7.400000	52.818235
7.410000	52.818235
7.420000	52.818235
7.430000	52.818235
7.440000	52.818235
7.450000	52.818235
7.460000	52.818235
7.470000	52.818235
7.480000	52.818235
7.490000	52.818235
7.500000	52.922042
7.510000	52.922042
7.520000	52.922042
7.530000	52.922042
7.540000	52.922042
7.550000	52.922042
7.560000	52.922042
7.570000	52.922042
7.580000	52.922042
7.590000	52.922042
7.600000	52.922042
7.610000	52.922042
7.620000	52.922042
7.630000	52.922042
7.640000	52.922042
7.650000	52.922042
7.660000	52.922042
7.670000	52.922042
7.680000	52.922042
7.690000	52.922042
7.700000	52.922042
7.710000	52.922042
7.720000	52.922042
7.730000	52.922042
7.740000	52.922042
7.750000	52.922042
7.760000	52.922042
7.770000	52.922042
7.780000	52.922042
7.790000	52.922042
7.800000	52.922042
7.810000	52.922042
7.820000	52.922042
7.830000	52.922042
7.840000	52.922042
7.850000	52.922042
7.860000	52.922042
7.870000	52.922042
7.880000	52.922042
7.890000	52.922042
7.900000	52.922042
7.910000	52.922042
7.920000	52.922042
7.930000	52.922042
7.940000	52.922042
7.950000	52.922042
7.960000	52.922042
7.970000	52.922042
7.980000	52.922042
7.990000	52.922042
8.000000	52.869943
8.010000	52.869943
8.020000	52.869943
8.030000	52.869943
8.040000	52.869943
8.050000	52.869943
8.060000	52.869943
8.070000	52.869943
8.080000	52.869943
8.090000	52.869943
8.100000	52.869943
8.110000	52.869943
8.120000	52.869943
8.130000	52.869943
8.140000	52.869943
8.150000	52.869943
8.160000	52.869943
8.170000	52.869943
8.180000	52.869943
8.190000	52.869943
8.200000	52.869943
8.210000	52.869943
8.220000	52.869943
8.230000	52.869943
8.240000	52.869943
8.250000	52.869943
8.260000	52.869943
8.270000	52.869943
8.280000	52.869943
8.290000	52.869943
8.300000	52.869943
8.310000	52.869943
8.320000	52.869943
8.330000	52.869943
8.340000	52.869943
8.350000	52.869943
8.360000	52.869943
8.370000	52.869943
8.380000	52.869943
8.390000	52.869943
8.400000	52.869943
8.410000	52.869943
8.420000	52.869943
8.430000	52.869943
8.440000	52.869943
8.450000	52.869943
8.460000	52.869943
8.470000	52.869943
8.480000	52.869943
8.490000	52.869943
8.500000	52.705854
8.510000	52.705854
8.520000	52.705854
8.530000	52.705854
8.540000	52.705854
8.550000	52.705854
8.560000	52.705854
8.570000	52.705854
8.580000	52.705854
8.590000	52.705854
8.600000	52.705854
8.610000	52.705854
8.620000	52.705854
8.630000	52.705854
8.640000	52.705854
8.650000	52.705854
8.660000	52.705854
8.670000	52.705854
8.680000	52.705854
8.690000	52.705854
8.700000	52.705854
8.710000	52.705854
8.720000	52.705854
8.730000	52.705854
8.740000	52.705854
8.750000	52.705854
8.760000	52.705854
8.770000	52.705854
8.780000	52.705854
8.790000	52.705854
8.800000	52.705854
8.810000	52.705854
8.820000	52.705854
8.830000	52.705854
8.840000	52.705854
8.850000	52.705854
8.860000	52.705854
8.870000	52.705854
8.880000	52.705854
8.890000	52.705854
8.900000	52.705854
8.910000	52.705854
8.920000	52.705854
8.930000	52.705854
8.940000	52.705854
8.950000	52.705854
8.960000	52.705854
8.970000	52.705854
8.980000	52.705854
8.990000	52.705854
9.000000	52.452352
9.010000	52.452352
9.020000	52.452352
9.030000	52.452352
9.040000	52.452352
9.050000	52.452352
9.060000	52.452352
9.070000	52.452352
9.080000	52.452352
9.090000	52.452352
9.100000	52.452352
9.110000	52.452352
9.120000	52.452352
9.130000	52.452352
9.140000	52.452352
9.150000	52.452352
9.160000	52.452352
9.170000	52.452352
9.180000	52.452352
9.190000	52.452352
9.200000	52.452352
9.210000	52.452352
9.220000	52.452352
9.230000	52.452352
9.240000	52.452352
9.250000	52.452352
9.260000	52.452352
9.270000	52.452352
9.280000	52.452352
9.290000	52.452352
9.300000	52.452352
9.310000	52.452352
9.320000	52.452352
9.330000	52.452352
9.340000	52.452352
9.350000	52.452352
9.360000	52.452352
9.370000	52.452352
9.380000	52.452352
9.390000	52.452352
9.400000	52.452352
9.410000	52.452352
9.420000	52.452352
9.430000	52.452352
9.440000	52.452352
9.450000	52.452352
9.460000	52.452352
9.470000	52.452352
9.480000	52.452352
9.490000	52.452352
9.500000	52.123054
9.510000	52.123054
9.520000	52.123054
9.530000	52.123054
9.540000	52.123054
9.550000	52.123054
9.560000	52.123054
9.570000	52.123054
9.580000	52.123054
9.590000	52.123054
9.600000	52.123054
9.610000	52.123054
9.620000	52.123054
9.630000	52.123054
9.640000	52.123054
9.650000	52.123054
9.660000	52.123054
9.670000	52.123054
9.680000	52.123054
9.690000	52.123054
9.700000	52.123054
9.710000	52.123054
9.720000	52.123054
9.730000	52.123054
9.740000	52.123054
9.750000	52.123054
9.760000	52.123054
9.770000	52.123054
9.780000	52.123054
9.790000	52.123054
9.800000	52.123054
9.810000	52.123054
9.820000	52.123054
9.830000	52.123054
9.840000	52.123054
9.850000	52.123054
9.860000	52.123054
9.870000	52.123054
9.880000	52.123054
9.890000	52.123054
9.900000	52.123054
9.910000	52.123054
9.920000	52.123054
9.930000	52.123054
9.940000	52.123054
9.950000	52.123054
9.960000	52.123054
9.970000	52.123054
9.980000	52.123054
9.990000	52.123054
10.000000	51.734467
10.010000	51.734467
10.020000	51.734467
10.030000	51.734467
10.040000	51.734467
10.050000	51.734467
10.060000	51.734467
10.070000	51.734467
10.080000	51.734467
10.090000	51.734467
10.100000	51.734467
10.110000	51.734467
10.120000	51.734467
10.130000	51.734467
10.140000	51.734467
10.150000	51.734467
10.160000	51.734467
10.170000	51.734467
10.180000	51.734467
10.190000	51.734467
10.200000	51.734467
10.210000	51.734467
10.220000	51.734467
10.230000	51.734467
10.240000	51.734467
10.250000	51.734467
10.260000	51.734467
10.270000	51.734467
10.280000	51.734467
10.290000	51.734467
10.300000	51.734467
10.310000	51.734467
10.320000	51.734467
10.330000	51.734467
10.340000	51.734467
10.350000	51.734467
10.360000	51.734467
10.370000	51.734467
10.380000	51.734467
10.390000	51.734467
10.400000	51.734467
10.410000	51.734467
10.420000	51.734467
10.430000	51.734467
10.440000	51.734467
10.450000	51.734467
10.460000	51.734467
10.470000	51.734467
10.480000	51.734467
10.490000	51.734467
10.500000	51.309664
10.510000	51.309664
10.520000	51.309664
10.530000	51.309664
10.540000	51.309664
10.550000	51.309664
10.560000	51.309664
10.570000	51.309664
10.580000	51.309664
10.590000	51.309664
10.600000	51.309664
10.610000	51.309664
10.620000	51.309664
10.630000	51.309664
10.640000	51.309664
10.650000	51.309664
10.660000	51.309664
10.670000	51.309664
10.680000	51.309664
10.690000	51.309664
10.700000	51.309664
10.710000	51.309664
10.720000	51.309664
10.730000	51.309664
10.740000	51.309664
10.750000	51.309664
10.760000	51.309664
10.770000	51.309664
10.780000	51.309664
10.790000	51.309664
10.800000	51.309664
10.810000	51.309664
10.820000	51.309664
10.830000	51.309664
10.840000	51.309664
10.850000	51.309664
10.860000	51.309664
10.870000	51.309664
10.880000	51.309664
10.890000	51.309664
10.900000	51.309664
10.910000	51.309664
10.920000	51.309664
10.930000	51.309664
10.940000	51.309664
10.950000	51.309664
10.960000	51.309664
10.970000	51.309664
10.980000	51.309664
10.990000	51.309664
11.000000	50.858789
11.010000	50.858789
11.020000	50.858789
11.030000	50.858789
11.040000	50.858789
11.050000	50.858789
11.060000	50.858789
11.070000	50.858789
11.080000	50.858789
11.090000	50.858789
11.100000	50.858789
11.110000	50.858789
11.120000	50.858789
11.130000	50.858789
11.140000	50.858789
11.150000	50.858789
11.160000	50.858789
11.170000	50.858789
11.180000	50.858789
11.190000	50.858789
11.200000	50.858789
11.210000	50.858789
11.220000	50.858789
11.230000	50.858789
11.240000	50.858789
11.250000	50.858789
11.260000	50.858789
11.270000	50.858789
11.280000	50.858789
11.290000	50.858789
11.300000	50.858789
11.310000	50.858789
11.320000	50.858789
11.330000	50.858789
11.340000	50.858789
11.350000	50.858789
11.360000	50.858789
11.370000	50.858789
11.380000	50.858789
11.390000	50.858789
11.400000	50.858789
11.410000	50.858789
11.420000	50.858789
11.430000	50.858789
11.440000	50.858789
11.450000	50.858789
11.460000	50.858789
11.470000	50.858789
11.480000	50.858789
11.490000	50.858789
11.500000	50.386906
11.510000	50.386906
11.520000	50.386906
11.530000	50.386906
11.540000	50.386906
11.550000	50.386906
11.560000	50.386906
11.570000	50.386906
11.580000	50.386906
11.590000	50.386906
11.600000	50.386906
11.610000	50.386906
11.620000	50.386906
11.630000	50.386906
11.640000	50.386906
11.650000	50.386906
11.660000	50.386906
11.670000	50.386906
11.680000	50.386906
11.690000	50.386906
11.700000	50.386906
11.710000	50.386906
11.720000	50.386906
11.730000	50.386906
11.740000	50.386906
11.750000	50.386906
11.760000	50.386906
11.770000	50.386906
11.780000	50.386906
11.790000	50.386906
11.800000	50.386906
11.810000	50.386906
11.820000	50.386906
11.830000	50.386906
11.840000	50.386906
11.850000	50.386906
11.860000	50.386906
11.870000	50.386906
11.880000	50.386906
11.890000	50.386906
11.900000	50.386906
11.910000	50.386906
11.920000	50.386906
11.930000	50.386906
11.940000	50.386906
11.950000	50.386906
11.960000	50.386906
11.970000	50.386906
11.980000	50.386906
11.990000	50.386906
12.000000	49.907399
12.010000	49.907399
12.020000	49.907399
12.030000	49.907399
12.040000	49.907399
12.050000	49.907399
12.060000	49.907399
12.070000	49.907399
12.080000	49.907399
12.090000	49.907399
12.100000	49.907399
12.110000	49.907399
12.120000	49.907399
12.130000	49.907399
12.140000	49.907399
12.150000	49.907399
12.160000	49.907399
12.170000	49.907399
12.180000	49.907399
12.190000	49.907399
12.200000	49.907399
12.210000	49.907399
12.220000	49.907399
12.230000	49.907399
12.240000	49.907399
12.250000	49.907399
12.260000	49.907399
12.270000	49.907399
12.280000	49.907399
12.290000	49.907399
12.300000	49.907399
12.310000	49.907399
12.320000	49.907399
12.330000	49.907399
12.340000	49.907399
12.350000	49.907399
12.360000	49.907399
12.370000	49.907399
12.380000	49.907399
12.390000	49.907399
12.400000	49.907399
12.410000	49.907399
12.420000	49.907399
12.430000	49.907399
12.440000	49.907399
12.450000	49.907399
12.460000	49.907399
12.470000	49.907399
12.480000	49.907399
12.490000	49.907399
12.500000	49.424850
12.510000	49.424850
12.520000	49.424850
12.530000	49.424850
12.540000	49.424850
12.550000	49.424850
12.560000	49.424850
12.570000	49.424850
12.580000	49.424850
12.590000	49.424850
12.600000	49.424850
12.610000	49.424850
12.620000	49.424850
12.630000	49.424850
12.640000	49.424850
12.650000	49.424850
12.660000	49.424850
12.670000	49.424850
12.680000	49.424850
12.690000	49.424850
12.700000	49.424850
12.710000	49.424850
12.720000	49.424850
12.730000	49.424850
12.740000	49.424850
12.750000	49.424850
12.760000	49.424850
12.770000	49.424850
12.780000	49.424850
12.790000	49.424850
12.800000	49.424850
12.810000	49.424850
12.820000	49.424850
12.830000	49.424850
12.840000	49.424850
12.850000	49.424850
12.860000	49.424850
12.870000	49.424850
12.880000	49.424850
12.890000	49.424850
12.900000	49.424850
12.910000	49.424850
12.920000	49.424850
12.930000	49.424850
12.940000	49.424850
12.950000	49.424850
12.960000	49.424850
12.970000	49.424850
12.980000	49.424850
12.990000	49.424850
13.000000	48.940175
13.010000	48.940175
13.020000	48.940175
13.030000	48.940175
13.040000	48.940175
13.050000	48.940175
13.060000	48.940175
13.070000	48.940175
13.080000	48.940175
13.090000	48.940175
13.100000	48.940175
13.110000	48.940175
13.120000	48.940175
13.130000	48.940175
13.140000	48.940175
13.150000	48.940175
13.160000	48.940175
13.170000	48.940175
13.180000	48.940175
13.190000	48.940175
13.200000	48.940175
13.210000	48.940175
13.220000	48.940175
13.230000	48.940175
13.240000	48.940175
13.250000	48.940175
13.260000	48.940175
13.270000	48.940175
13.280000	48.940175
13.290000	48.940175
13.300000	48.940175
13.310000	48.940175
13.320000	48.940175
13.330000	48.940175
13.340000	48.940175
13.350000	48.940175
13.360000	48.940175
13.370000	48.940175
13.380000	48.940175
13.390000	48.940175
13.400000	48.940175
13.410000	48.940175
13.420000	48.940175
13.430000	48.940175
13.440000	48.940175
13.450000	48.940175
13.460000	48.940175
13.470000	48.940175
13.480000	48.940175
13.490000	48.940175
13.500000	48.456657
13.510000	48.456657
13.520000	48.456657
13.530000	48.456657
13.540000	48.456657
13.550000	48.456657
13.560000	48.456657
13.570000	48.456657
13.580000	48.456657
13.590000	48.456657
13.600000	48.456657
13.610000	48.456657
13.620000	48.456657
13.630000	48.456657
13.640000	48.456657
13.650000	48.456657
13.660000	48.456657
13.670000	48.456657
13.680000	48.456657
13.690000	48.456657
13.700000	48.456657
13.710000	48.456657
13.720000	48.456657
13.730000	48.456657
13.740000	48.456657
13.750000	48.456657
13.760000	48.456657
13.770000	48.456657
13.780000	48.456657
13.790000	48.456657
13.800000	48.456657
13.810000	48.456657
13.820000	48.456657
13.830000	48.456657
13.840000	48.456657
13.850000	48.456657
13.860000	48.456657
13.870000	48.456657
13.880000	48.456657
13.890000	48.456657
13.900000	48.456657
13.910000	48.456657
13.920000	48.456657
13.930000	48.456657
13.940000	48.456657
13.950000	48.456657
13.960000	48.456657
13.970000	48.456657
13.980000	48.456657
13.990000	48.456657
14.000000	47.972334
14.010000	47.972334
14.020000	47.972334
14.030000	47.972334
14.040000	47.972334
14.050000	47.972334
14.060000	47.972334
14.070000	47.972334
14.080000	47.972334
14.090000	47.972334
14.100000	47.972334
14.110000	47.972334
14.120000	47.972334
14.130000	47.972334
14.140000	47.972334
14.150000	47.972334
14.160000	47.972334
14.170000	47.972334
14.180000	47.972334
14.190000	47.972334
14.200000	47.972334
14.210000	47.972334
14.220000	47.972334
14.230000	47.972334
14.240000	47.972334
14.250000	47.972334
14.260000	47.972334
14.270000	47.972334
14.280000	47.972334
14.290000	47.972334
14.300000	47.972334
14.310000	47.972334
14.320000	47.972334
14.330000	47.972334
14.340000	47.972334
14.350000	47.972334
14.360000	47.972334
14.370000	47.972334
14.380000	47.972334
14.390000	47.972334
14.400000	47.972334
14.410000	47.972334
14.420000	47.972334
14.430000	47.972334
14.440000	47.972334
14.450000	47.972334
14.460000	47.972334
14.470000	47.972334
14.480000	47.972334
14.490000	47.972334
14.500000	47.494345
14.510000	47.494345
14.520000	47.494345
14.530000	47.494345
14.540000	47.494345
14.550000	47.494345
14.560000	47.494345
14.570000	47.494345
14.580000	47.494345
14.590000	47.494345
14.600000	47.494345
14.610000	47.494345
14.620000	47.494345
14.630000	47.494345
14.640000	47.494345
14.650000	47.494345
14.660000	47.494345
14.670000	47.494345
14.680000	47.494345
14.690000	47.494345
14.700000	47.494345
14.710000	47.494345
14.720000	47.494345
14.730000	47.494345
14.740000	47.494345
14.750000	47.494345
14.760000	47.494345
14.770000	47.494345
14.780000	47.494345
14.790000	47.494345
14.800000	47.494345
14.810000	47.494345
14.820000	47.494345
14.830000	47.494345
14.840000	47.494345
14.850000	47.494345
14.860000	47.494345
14.870000	47.494345
14.880000	47.494345
14.890000	47.494345
14.900000	47.494345
14.910000	47.494345
14.920000	47.494345
14.930000	47.494345
14.940000	47.494345
14.950000	47.494345
14.960000	47.494345
14.970000	47.494345
14.980000	47.494345
14.990000	47.494345
15.000000	47.027479
15.010000	47.027479
15.020000	47.027479
15.030000	47.027479
15.040000	47.027479
15.050000	47.027479
15.060000	47.027479
15.070000	47.027479
15.080000	47.027479
15.090000	47.027479
15.100000	47.027479
15.110000	47.027479
15.120000	47.027479
15.130000	47.027479
15.140000	47.027479
15.150000	47.027479
15.160000	47.027479
15.170000	47.027479
15.180000	47.027479
15.190000	47.027479
15.200000	47.027479
15.210000	47.027479
15.220000	47.027479
15.230000	47.027479
15.240000	47.027479
15.250000	47.027479
15.260000	47.027479
15.270000	47.027479
15.280000	47.027479
15.290000	47.027479
15.300000	47.027479
15.310000	47.027479
15.320000	47.027479
15.330000	47.027479
15.340000	47.027479
15.350000	47.027479
15.360000	47.027479
15.370000	47.027479
15.380000	47.027479
15.390000	47.027479
15.400000	47.027479
15.410000	47.027479
15.420000	47.027479
15.430000	47.027479
15.440000	47.027479
15.450000	47.027479
15.460000	47.027479
15.470000	47.027479
15.480000	47.027479
15.490000	47.027479
15.500000	46.575156
15.510000	46.575156
15.520000	46.575156
15.530000	46.575156
15.540000	46.575156
15.550000	46.575156
15.560000	46.575156
15.570000	46.575156
15.580000	46.575156
15.590000	46.575156
15.600000	46.575156
15.610000	46.575156
15.620000	46.575156
15.630000	46.575156
15.640000	46.575156
15.650000	46.575156
15.660000	46.575156
15.670000	46.575156
15.680000	46.575156
15.690000	46.575156
15.700000	46.575156
15.710000	46.575156
15.720000	46.575156
15.730000	46.575156
15.740000	46.575156
15.750000	46.575156
15.760000	46.575156
15.770000	46.575156
15.780000	46.575156
15.790000	46.575156
15.800000	46.575156
15.810000	46.575156
15.820000	46.575156
15.830000	46.575156
15.840000	46.575156
15.850000	46.575156
15.860000	46.575156
15.870000	46.575156
15.880000	46.575156
15.890000	46.575156
15.900000	46.575156
15.910000	46.575156
15.920000	46.575156
15.930000	46.575156
15.940000	46.575156
15.950000	46.575156
15.960000	46.575156
15.970000	46.575156
15.980000	46.575156
15.990000	46.575156
16.000000	46.131668
16.010000	46.131668
16.020000	46.131668
16.030000	46.131668
16.040000	46.131668
16.050000	46.131668
16.060000	46.131668
16.070000	46.131668
16.080000	46.131668
16.090000	46.131668
16.100000	46.131668
16.110000	46.131668
16.120000	46.131668
16.130000	46.131668
16.140000	46.131668
16.150000	46.131668
16.160000	46.131668
16.170000	46.131668
16.180000	46.131668
16.190000	46.131668
16.200000	46.131668
16.210000	46.131668
16.220000	46.131668
16.230000	46.131668
16.240000	46.131668
16.250000	46.131668
16.260000	46.131668
16.270000	46.131668
16.280000	46.131668
16.290000	46.131668
16.300000	46.131668
16.310000	46.131668
16.320000	46.131668
16.330000	46.131668
16.340000	46.131668
16.350000	46.131668
16.360000	46.131668
16.370000	46.131668
16.380000	46.131668
16.390000	46.131668
16.400000	46.131668
16.410000	46.131668
16.420000	46.131668
16.430000	46.131668
16.440000	46.131668
16.450000	46.131668
16.460000	46.131668
16.470000	46.131668
16.480000	46.131668
16.490000	46.131668
16.500000	45.698221
16.510000	45.698221
16.520000	45.698221
16.530000	45.698221
16.540000	45.698221
16.550000	45.698221
16.560000	45.698221
16.570000	45.698221
16.580000	45.698221
16.590000	45.698221
16.600000	45.698221
16.610000	45.698221
16.620000	45.698221
16.630000	45.698221
16.640000	45.698221
16.650000	45.698221
16.660000	45.698221
16.670000	45.698221
16.680000	45.698221
16.690000	45.698221
16.700000	45.698221
16.710000	45.698221
16.720000	45.698221
16.730000	45.698221
16.740000	45.698221
16.750000	45.698221
16.760000	45.698221
16.770000	45.698221
16.780000	45.698221
16.790000	45.698221
16.800000	45.698221
16.810000	45.698221
16.820000	45.698221
16.830000	45.698221
16.840000	45.698221
16.850000	45.698221
16.860000	45.698221
16.870000	45.698221
16.880000	45.698221
16.890000	45.698221
16.900000	45.698221
16.910000	45.698221
16.920000	45.698221
16.930000	45.698221
16.940000	45.698221
16.950000	45.698221
16.960000	45.698221
16.970000	45.698221
16.980000	45.698221
16.990000	45.698221
17.000000	45.278281
17.010000	45.278281
17.020000	45.278281
17.030000	45.278281
17.040000	45.278281
17.050000	45.278281
17.060000	45.278281
17.070000	45.278281
17.080000	45.278281
17.090000	45.278281
17.100000	45.278281
17.110000	45.278281
17.120000	45.278281
17.130000	45.278281
17.140000	45.278281
17.150000	45.278281
17.160000	45.278281
17.170000	45.278281
17.180000	45.278281
17.190000	45.278281
17.200000	45.278281
17.210000	45.278281
17.220000	45.278281
17.230000	45.278281
17.240000	45.278281
17.250000	45.278281
17.260000	45.278281
17.270000	45.278281
17.280000	45.278281
17.290000	45.278281
17.300000	45.278281
17.310000	45.278281
17.320000	45.278281
17.330000	45.278281
17.340000	45.278281
17.350000	45.278281
17.360000	45.278281
17.370000	45.278281
17.380000	45.278281
17.390000	45.278281
17.400000	45.278281
17.410000	45.278281
17.420000	45.278281
17.430000	45.278281
17.440000	45.278281
17.450000	45.278281
17.460000	45.278281
17.470000	45.278281
17.480000	45.278281
17.490000	45.278281
17.500000	44.871538
17.510000	44.871538
17.520000	44.871538
17.530000	44.871538
17.540000	44.871538
17.550000	44.871538
17.560000	44.871538
17.570000	44.871538
17.580000	44.871538
17.590000	44.871538
17.600000	44.871538
17.610000	44.871538
17.620000	44.871538
17.630000	44.871538
17.640000	44.871538
17.650000	44.871538
17.660000	44.871538
17.670000	44.871538
17.680000	44.871538
17.690000	44.871538
17.700000	44.871538
17.710000	44.871538
17.720000	44.871538
17.730000	44.871538
17.740000	44.871538
17.750000	44.871538
17.760000	44.871538
17.770000	44.871538
17.780000	44.871538
17.790000	44.871538
17.800000	44.871538
17.810000	44.871538
17.820000	44.871538
17.830000	44.871538
17.840000	44.871538
17.850000	44.871538
17.860000	44.871538
17.870000	44.871538
17.880000	44.871538
17.890000	44.871538
17.900000	44.871538
17.910000	44.871538
17.920000	44.871538
17.930000	44.871538
17.940000	44.871538
17.950000	44.871538
17.960000	44.871538
17.970000	44.871538
17.980000	44.871538
17.990000	44.871538
