LabVIEW Measurement	
Writer_Version	2
Reader_Version	2
Separator	Tab
Decimal_Separator	.
Multi_Headings	No
X_Columns	One
Time_Pref	Absolute
Operator	biomech-dyno
Date	2023/05/24
Time	15:19:49.9492761999999796612
***End_of_Header***	
	
Channels	1	
Samples	10	
Date	2023/05/24	
Time	16:04:55.1801239999998601295	
X_Dimension	Time	
X0	0.0000000000000000E+0	
Delta_X	0.010000	
***End_of_Header***		
X_Value	Untitled	Comment
0.000000	25.042233
0.010000	25.042233
0.020000	25.042233
0.030000	25.042233
0.040000	25.042233
0.050000	25.042233
0.060000	25.042233
0.070000	25.042233
0.080000	25.042233
0.090000	25.042233
0.100000	25.042233
0.110000	25.042233
0.120000	25.042233
0.130000	25.042233
0.140000	25.042233
0.150000	25.042233
0.160000	25.042233
0.170000	25.042233
0.180000	25.042233
0.190000	25.042233
0.200000	25.042233
0.210000	25.042233
0.220000	25.042233
0.230000	25.042233
0.240000	25.042233
0.250000	25.042233
0.260000	25.042233
0.270000	25.042233
0.280000	25.042233
0.290000	25.042233
0.300000	25.042233
0.310000	25.042233
0.320000	25.042233
0.330000	25.042233
0.340000	25.042233
0.350000	25.042233
0.360000	25.042233
0.370000	25.042233
0.380000	25.042233
0.390000	25.042233
0.400000	25.042233
0.410000	25.042233
0.420000	25.042233
0.430000	25.042233
0.440000	25.042233
0.450000	25.042233
0.460000	25.042233
0.470000	25.042233
0.480000	25.042233
0.490000	25.042233
0.500000	25.088933
0.510000	25.088933
0.520000	25.088933
0.530000	25.088933
0.540000	25.088933
0.550000	25.088933
0.560000	25.088933
0.570000	25.088933
0.580000	25.088933
0.590000	25.088933
0.600000	25.088933
0.610000	25.088933
0.620000	25.088933
0.630000	25.088933
0.640000	25.088933
0.650000	25.088933
0.660000	25.088933
0.670000	25.088933
0.680000	25.088933
0.690000	25.088933
0.700000	25.088933
0.710000	25.088933
0.720000	25.088933
0.730000	25.088933
0.740000	25.088933
0.750000	25.088933
0.760000	25.088933
0.770000	25.088933
0.780000	25.088933
0.790000	25.088933
0.800000	25.088933
0.810000	25.088933
0.820000	25.088933
0.830000	25.088933
0.840000	25.088933
0.850000	25.088933
0.860000	25.088933
0.870000	25.088933
0.880000	25.088933
0.890000	25.088933
0.900000	25.088933
0.910000	25.088933
0.920000	25.088933
0.930000	25.088933
0.940000	25.088933
0.950000	25.088933
0.960000	25.088933
0.970000	25.088933
0.980000	25.088933
0.990000	25.088933
1.000000	25.591514
1.010000	25.591514
1.020000	25.591514
1.030000	25.591514
1.040000	25.591514
1.050000	25.591514
1.060000	25.591514
1.070000	25.591514
1.080000	25.591514
1.090000	25.591514
1.100000	25.591514
1.110000	25.591514
1.120000	25.591514
1.130000	25.591514
1.140000	25.591514
1.150000	25.591514
1.160000	25.591514
1.170000	25.591514
1.180000	25.591514
1.190000	25.591514
1.200000	25.591514
1.210000	25.591514
1.220000	25.591514
1.230000	25.591514
1.240000	25.591514
1.250000	25.591514
1.260000	25.591514
1.270000	25.591514
1.280000	25.591514
1.290000	25.591514
1.300000	25.591514
1.310000	25.591514
1.320000	25.591514
1.330000	25.591514
1.340000	25.591514
1.350000	25.591514
1.360000	25.591514
1.370000	25.591514
1.380000	25.591514
1.390000	25.591514
1.400000	25.591514
1.410000	25.591514
1.420000	25.591514
1.430000	25.591514
1.440000	25.591514
1.450000	25.591514
1.460000	25.591514
1.470000	25.591514
1.480000	25.591514
1.490000	25.591514
1.500000	26.770825
1.510000	26.770825
1.520000	26.770825
1.530000	26.770825
1.540000	26.770825
1.550000	26.770825
1.560000	26.770825
1.570000	26.770825
1.580000	26.770825
1.590000	26.770825
1.600000	26.770825
1.610000	26.770825
1.620000	26.770825
1.630000	26.770825
1.640000	26.770825
1.650000	26.770825
1.660000	26.770825
1.670000	26.770825
1.680000	26.770825
1.690000	26.770825
1.700000	26.770825
1.710000	26.770825
1.720000	26.770825
1.730000	26.770825
1.740000	26.770825
1.750000	26.770825
1.760000	26.770825
1.770000	26.770825
1.780000	26.770825
1.790000	26.770825
1.800000	26.770825
1.810000	26.770825
1.820000	26.770825
1.830000	26.770825
1.840000	26.770825
1.850000	26.770825
1.860000	26.770825
1.870000	26.770825
1.880000	26.770825
1.890000	26.770825
1.900000	26.770825
1.910000	26.770825
1.920000	26.770825
1.930000	26.770825
1.940000	26.770825
1.950000	26.770825
1.960000	26.770825
1.970000	26.770825
1.980000	26.770825
1.990000	26.770825
2.000000	28.522003
2.010000	28.522003
2.020000	28.522003
2.030000	28.522003
2.040000	28.522003
2.050000	28.522003
2.060000	28.522003
2.070000	28.522003
2.080000	28.522003
2.090000	28.522003
2.100000	28.522003
2.110000	28.522003
2.120000	28.522003
2.130000	28.522003
2.140000	28.522003
2.150000	28.522003
2.160000	28.522003
2.170000	28.522003
2.180000	28.522003
2.190000	28.522003
2.200000	28.522003
2.210000	28.522003
2.220000	28.522003
2.230000	28.522003
2.240000	28.522003
2.250000	28.522003
2.260000	28.522003
2.270000	28.522003
2.280000	28.522003
2.290000	28.522003
2.300000	28.522003
2.310000	28.522003
2.320000	28.522003
2.330000	28.522003
2.340000	28.522003
2.350000	28.522003
2.360000	28.522003
2.370000	28.522003
2.380000	28.522003
2.390000	28.522003
2.400000	28.522003
2.410000	28.522003
2.420000	28.522003
2.430000	28.522003
2.440000	28.522003
2.450000	28.522003
2.460000	28.522003
2.470000	28.522003
2.480000	28.522003
2.490000	28.522003
2.500000	30.681408
2.510000	30.681408
2.520000	30.681408
2.530000	30.681408
2.540000	30.681408
2.550000	30.681408
2.560000	30.681408
2.570000	30.681408
2.580000	30.681408
2.590000	30.681408
2.600000	30.681408
2.610000	30.681408
2.620000	30.681408
2.630000	30.681408
2.640000	30.681408
2.650000	30.681408
2.660000	30.681408
2.670000	30.681408
2.680000	30.681408
2.690000	30.681408
2.700000	30.681408
2.710000	30.681408
2.720000	30.681408
2.730000	30.681408
2.740000	30.681408
2.750000	30.681408
2.760000	30.681408
2.770000	30.681408
2.780000	30.681408
2.790000	30.681408
2.800000	30.681408
2.810000	30.681408
2.820000	30.681408
2.830000	30.681408
2.840000	30.681408
2.850000	30.681408
2.860000	30.681408
2.870000	30.681408
2.880000	30.681408
2.890000	30.681408
2.900000	30.681408
2.910000	30.681408
2.920000	30.681408
2.930000	30.681408
2.940000	30.681408
2.950000	30.681408
2.960000	30.681408
2.970000	30.681408
2.980000	30.681408
2.990000	30.681408
3.000000	33.143587
3.010000	33.143587
3.020000	33.143587
3.030000	33.143587
3.040000	33.143587
3.050000	33.143587
3.060000	33.143587
3.070000	33.143587
3.080000	33.143587
3.090000	33.143587
3.100000	33.143587
3.110000	33.143587
3.120000	33.143587
3.130000	33.143587
3.140000	33.143587
3.150000	33.143587
3.160000	33.143587
3.170000	33.143587
3.180000	33.143587
3.190000	33.143587
3.200000	33.143587
3.210000	33.143587
3.220000	33.143587
3.230000	33.143587
3.240000	33.143587
3.250000	33.143587
3.260000	33.143587
3.270000	33.143587
3.280000	33.143587
3.290000	33.143587
3.300000	33.143587
3.310000	33.143587
3.320000	33.143587
3.330000	33.143587
3.340000	33.143587
3.350000	33.143587
3.360000	33.143587
3.370000	33.143587
3.380000	33.143587
3.390000	33.143587
3.400000	33.143587
3.410000	33.143587
3.420000	33.143587
3.430000	33.143587
3.440000	33.143587
3.450000	33.143587
3.460000	33.143587
3.470000	33.143587
3.480000	33.143587
3.490000	33.143587
3.500000	35.748222
3.510000	35.748222
3.520000	35.748222
3.530000	35.748222
3.540000	35.748222
3.550000	35.748222
3.560000	35.748222
3.570000	35.748222
3.580000	35.748222
3.590000	35.748222
3.600000	35.748222
3.610000	35.748222
3.620000	35.748222
3.630000	35.748222
3.640000	35.748222
3.650000	35.748222
3.660000	35.748222
3.670000	35.748222
3.680000	35.748222
3.690000	35.748222
3.700000	35.748222
3.710000	35.748222
3.720000	35.748222
3.730000	35.748222
3.740000	35.748222
3.750000	35.748222
3.760000	35.748222
3.770000	35.748222
3.780000	35.748222
3.790000	35.748222
3.800000	35.748222
3.810000	35.748222
3.820000	35.748222
3.830000	35.748222
3.840000	35.748222
3.850000	35.748222
3.860000	35.748222
3.870000	35.748222
3.880000	35.748222
3.890000	35.748222
3.900000	35.748222
3.910000	35.748222
3.920000	35.748222
3.930000	35.748222
3.940000	35.748222
3.950000	35.748222
3.960000	35.748222
3.970000	35.748222
3.980000	35.748222
3.990000	35.748222
4.000000	37.924655
4.010000	37.924655
4.020000	37.924655
4.030000	37.924655
4.040000	37.924655
4.050000	37.924655
4.060000	37.924655
4.070000	37.924655
4.080000	37.924655
4.090000	37.924655
4.100000	37.924655
4.110000	37.924655
4.120000	37.924655
4.130000	37.924655
4.140000	37.924655
4.150000	37.924655
4.160000	37.924655
4.170000	37.924655
4.180000	37.924655
4.190000	37.924655
4.200000	37.924655
4.210000	37.924655
4.220000	37.924655
4.230000	37.924655
4.240000	37.924655
4.250000	37.924655
4.260000	37.924655
4.270000	37.924655
4.280000	37.924655
4.290000	37.924655
4.300000	37.924655
4.310000	37.924655
4.320000	37.924655
4.330000	37.924655
4.340000	37.924655
4.350000	37.924655
4.360000	37.924655
4.370000	37.924655
4.380000	37.924655
4.390000	37.924655
4.400000	37.924655
4.410000	37.924655
4.420000	37.924655
4.430000	37.924655
4.440000	37.924655
4.450000	37.924655
4.460000	37.924655
4.470000	37.924655
4.480000	37.924655
4.490000	37.924655
4.500000	39.546637
4.510000	39.546637
4.520000	39.546637
4.530000	39.546637
4.540000	39.546637
4.550000	39.546637
4.560000	39.546637
4.570000	39.546637
4.580000	39.546637
4.590000	39.546637
4.600000	39.546637
4.610000	39.546637
4.620000	39.546637
4.630000	39.546637
4.640000	39.546637
4.650000	39.546637
4.660000	39.546637
4.670000	39.546637
4.680000	39.546637
4.690000	39.546637
4.700000	39.546637
4.710000	39.546637
4.720000	39.546637
4.730000	39.546637
4.740000	39.546637
4.750000	39.546637
4.760000	39.546637
4.770000	39.546637
4.780000	39.546637
4.790000	39.546637
4.800000	39.546637
4.810000	39.546637
4.820000	39.546637
4.830000	39.546637
4.840000	39.546637
4.850000	39.546637
4.860000	39.546637
4.870000	39.546637
4.880000	39.546637
4.890000	39.546637
4.900000	39.546637
4.910000	39.546637
4.920000	39.546637
4.930000	39.546637
4.940000	39.546637
4.950000	39.546637
4.960000	39.546637
4.970000	39.546637
4.980000	39.546637
4.990000	39.546637
5.000000	40.709598
5.010000	40.709598
5.020000	40.709598
5.030000	40.709598
5.040000	40.709598
5.050000	40.709598
5.060000	40.709598
5.070000	40.709598
5.080000	40.709598
5.090000	40.709598
5.100000	40.709598
5.110000	40.709598
5.120000	40.709598
5.130000	40.709598
5.140000	40.709598
5.150000	40.709598
5.160000	40.709598
5.170000	40.709598
5.180000	40.709598
5.190000	40.709598
5.200000	40.709598
5.210000	40.709598
5.220000	40.709598
5.230000	40.709598
5.240000	40.709598
5.250000	40.709598
5.260000	40.709598
5.270000	40.709598
5.280000	40.709598
5.290000	40.709598
5.300000	40.709598
5.310000	40.709598
5.320000	40.709598
5.330000	40.709598
5.340000	40.709598
5.350000	40.709598
5.360000	40.709598
5.370000	40.709598
5.380000	40.709598
5.390000	40.709598
5.400000	40.709598
5.410000	40.709598
5.420000	40.709598
5.430000	40.709598
5.440000	40.709598
5.450000	40.709598
5.460000	40.709598
5.470000	40.709598
5.480000	40.709598
5.490000	40.709598
5.500000	41.510099
5.510000	41.510099
5.520000	41.510099
5.530000	41.510099
5.540000	41.510099
5.550000	41.510099
5.560000	41.510099
5.570000	41.510099
5.580000	41.510099
5.590000	41.510099
5.600000	41.510099
5.610000	41.510099
5.620000	41.510099
5.630000	41.510099
5.640000	41.510099
5.650000	41.510099
5.660000	41.510099
5.670000	41.510099
5.680000	41.510099
5.690000	41.510099
5.700000	41.510099
5.710000	41.510099
5.720000	41.510099
5.730000	41.510099
5.740000	41.510099
5.750000	41.510099
5.760000	41.510099
5.770000	41.510099
5.780000	41.510099
5.790000	41.510099
5.800000	41.510099
5.810000	41.510099
5.820000	41.510099
5.830000	41.510099
5.840000	41.510099
5.850000	41.510099
5.860000	41.510099
5.870000	41.510099
5.880000	41.510099
5.890000	41.510099
5.900000	41.510099
5.910000	41.510099
5.920000	41.510099
5.930000	41.510099
5.940000	41.510099
5.950000	41.510099
5.960000	41.510099
5.970000	41.510099
5.980000	41.510099
5.990000	41.510099
6.000000	42.036843
6.010000	42.036843
6.020000	42.036843
6.030000	42.036843
6.040000	42.036843
6.050000	42.036843
6.060000	42.036843
6.070000	42.036843
6.080000	42.036843
6.090000	42.036843
6.100000	42.036843
6.110000	42.036843
6.120000	42.036843
6.130000	42.036843
6.140000	42.036843
6.150000	42.036843
6.160000	42.036843
6.170000	42.036843
6.180000	42.036843
6.190000	42.036843
6.200000	42.036843
6.210000	42.036843
6.220000	42.036843
6.230000	42.036843
6.240000	42.036843
6.250000	42.036843
6.260000	42.036843
6.270000	42.036843
6.280000	42.036843
6.290000	42.036843
6.300000	42.036843
6.310000	42.036843
6.320000	42.036843
6.330000	42.036843
6.340000	42.036843
6.350000	42.036843
6.360000	42.036843
6.370000	42.036843
6.380000	42.036843
6.390000	42.036843
6.400000	42.036843
6.410000	42.036843
6.420000	42.036843
6.430000	42.036843
6.440000	42.036843
6.450000	42.036843
6.460000	42.036843
6.470000	42.036843
6.480000	42.036843
6.490000	42.036843
6.500000	42.358343
6.510000	42.358343
6.520000	42.358343
6.530000	42.358343
6.540000	42.358343
6.550000	42.358343
6.560000	42.358343
6.570000	42.358343
6.580000	42.358343
6.590000	42.358343
6.600000	42.358343
6.610000	42.358343
6.620000	42.358343
6.630000	42.358343
6.640000	42.358343
6.650000	42.358343
6.660000	42.358343
6.670000	42.358343
6.680000	42.358343
6.690000	42.358343
6.700000	42.358343
6.710000	42.358343
6.720000	42.358343
6.730000	42.358343
6.740000	42.358343
6.750000	42.358343
6.760000	42.358343
6.770000	42.358343
6.780000	42.358343
6.790000	42.358343
6.800000	42.358343
6.810000	42.358343
6.820000	42.358343
6.830000	42.358343
6.840000	42.358343
6.850000	42.358343
6.860000	42.358343
6.870000	42.358343
6.880000	42.358343
6.890000	42.358343
6.900000	42.358343
6.910000	42.358343
6.920000	42.358343
6.930000	42.358343
6.940000	42.358343
6.950000	42.358343
6.960000	42.358343
6.970000	42.358343
6.980000	42.358343
6.990000	42.358343
7.000000	42.516924
7.010000	42.516924
7.020000	42.516924
7.030000	42.516924
7.040000	42.516924
7.050000	42.516924
7.060000	42.516924
7.070000	42.516924
7.080000	42.516924
7.090000	42.516924
7.100000	42.516924
7.110000	42.516924
7.120000	42.516924
7.130000	42.516924
7.140000	42.516924
7.150000	42.516924
7.160000	42.516924
7.170000	42.516924
7.180000	42.516924
7.190000	42.516924
7.200000	42.516924
7.210000	42.516924
7.220000	42.516924
7.230000	42.516924
7.240000	42.516924
7.250000	42.516924
7.260000	42.516924
7.270000	42.516924
7.280000	42.516924
7.290000	42.516924
7.300000	42.516924
7.310000	42.516924
7.320000	42.516924
7.330000	42.516924
7.340000	42.516924
7.350000	42.516924
7.360000	42.516924
7.370000	42.516924
7.380000	42.516924
7.390000	42.516924
7.400000	42.516924
7.410000	42.516924
7.420000	42.516924
7.430000	42.516924
7.440000	42.516924
7.450000	42.516924
7.460000	42.516924
7.470000	42.516924
7.480000	42.516924
7.490000	42.516924
7.500000	42.550794
7.510000	42.550794
7.520000	42.550794
7.530000	42.550794
7.540000	42.550794
7.550000	42.550794
7.560000	42.550794
7.570000	42.550794
7.580000	42.550794
7.590000	42.550794
7.600000	42.550794
7.610000	42.550794
7.620000	42.550794
7.630000	42.550794
7.640000	42.550794
7.650000	42.550794
7.660000	42.550794
7.670000	42.550794
7.680000	42.550794
7.690000	42.550794
7.700000	42.550794
7.710000	42.550794
7.720000	42.550794
7.730000	42.550794
7.740000	42.550794
7.750000	42.550794
7.760000	42.550794
7.770000	42.550794
7.780000	42.550794
7.790000	42.550794
7.800000	42.550794
7.810000	42.550794
7.820000	42.550794
7.830000	42.550794
7.840000	42.550794
7.850000	42.550794
7.860000	42.550794
7.870000	42.550794
7.880000	42.550794
7.890000	42.550794
7.900000	42.550794
7.910000	42.550794
7.920000	42.550794
7.930000	42.550794
7.940000	42.550794
7.950000	42.550794
7.960000	42.550794
7.970000	42.550794
7.980000	42.550794
7.990000	42.550794
8.000000	42.490413
8.010000	42.490413
8.020000	42.490413
8.030000	42.490413
8.040000	42.490413
8.050000	42.490413
8.060000	42.490413
8.070000	42.490413
8.080000	42.490413
8.090000	42.490413
8.100000	42.490413
8.110000	42.490413
8.120000	42.490413
8.130000	42.490413
8.140000	42.490413
8.150000	42.490413
8.160000	42.490413
8.170000	42.490413
8.180000	42.490413
8.190000	42.490413
8.200000	42.490413
8.210000	42.490413
8.220000	42.490413
8.230000	42.490413
8.240000	42.490413
8.250000	42.490413
8.260000	42.490413
8.270000	42.490413
8.280000	42.490413
8.290000	42.490413
8.300000	42.490413
8.310000	42.490413
8.320000	42.490413
8.330000	42.490413
8.340000	42.490413
8.350000	42.490413
8.360000	42.490413
8.370000	42.490413
8.380000	42.490413
8.390000	42.490413
8.400000	42.490413
8.410000	42.490413
8.420000	42.490413
8.430000	42.490413
8.440000	42.490413
8.450000	42.490413
8.460000	42.490413
8.470000	42.490413
8.480000	42.490413
8.490000	42.490413
8.500000	42.354638
8.510000	42.354638
8.520000	42.354638
8.530000	42.354638
8.540000	42.354638
8.550000	42.354638
8.560000	42.354638
8.570000	42.354638
8.580000	42.354638
8.590000	42.354638
8.600000	42.354638
8.610000	42.354638
8.620000	42.354638
8.630000	42.354638
8.640000	42.354638
8.650000	42.354638
8.660000	42.354638
8.670000	42.354638
8.680000	42.354638
8.690000	42.354638
8.700000	42.354638
8.710000	42.354638
8.720000	42.354638
8.730000	42.354638
8.740000	42.354638
8.750000	42.354638
8.760000	42.354638
8.770000	42.354638
8.780000	42.354638
8.790000	42.354638
8.800000	42.354638
8.810000	42.354638
8.820000	42.354638
8.830000	42.354638
8.840000	42.354638
8.850000	42.354638
8.860000	42.354638
8.870000	42.354638
8.880000	42.354638
8.890000	42.354638
8.900000	42.354638
8.910000	42.354638
8.920000	42.354638
8.930000	42.354638
8.940000	42.354638
8.950000	42.354638
8.960000	42.354638
8.970000	42.354638
8.980000	42.354638
8.990000	42.354638
9.000000	42.164498
9.010000	42.164498
9.020000	42.164498
9.030000	42.164498
9.040000	42.164498
9.050000	42.164498
9.060000	42.164498
9.070000	42.164498
9.080000	42.164498
9.090000	42.164498
9.100000	42.164498
9.110000	42.164498
9.120000	42.164498
9.130000	42.164498
9.140000	42.164498
9.150000	42.164498
9.160000	42.164498
9.170000	42.164498
9.180000	42.164498
9.190000	42.164498
9.200000	42.164498
9.210000	42.164498
9.220000	42.164498
9.230000	42.164498
9.240000	42.164498
9.250000	42.164498
9.260000	42.164498
9.270000	42.164498
9.280000	42.164498
9.290000	42.164498
9.300000	42.164498
9.310000	42.164498
9.320000	42.164498
9.330000	42.164498
9.340000	42.164498
9.350000	42.164498
9.360000	42.164498
9.370000	42.164498
9.380000	42.164498
9.390000	42.164498
9.400000	42.164498
9.410000	42.164498
9.420000	42.164498
9.430000	42.164498
9.440000	42.164498
9.450000	42.164498
9.460000	42.164498
9.470000	42.164498
9.480000	42.164498
9.490000	42.164498
9.500000	41.935703
9.510000	41.935703
9.520000	41.935703
9.530000	41.935703
9.540000	41.935703
9.550000	41.935703
9.560000	41.935703
9.570000	41.935703
9.580000	41.935703
9.590000	41.935703
9.600000	41.935703
9.610000	41.935703
9.620000	41.935703
9.630000	41.935703
9.640000	41.935703
9.650000	41.935703
9.660000	41.935703
9.670000	41.935703
9.680000	41.935703
9.690000	41.935703
9.700000	41.935703
9.710000	41.935703
9.720000	41.935703
9.730000	41.935703
9.740000	41.935703
9.750000	41.935703
9.760000	41.935703
9.770000	41.935703
9.780000	41.935703
9.790000	41.935703
9.800000	41.935703
9.810000	41.935703
9.820000	41.935703
9.830000	41.935703
9.840000	41.935703
9.850000	41.935703
9.860000	41.935703
9.870000	41.935703
9.880000	41.935703
9.890000	41.935703
9.900000	41.935703
9.910000	41.935703
9.920000	41.935703
9.930000	41.935703
9.940000	41.935703
9.950000	41.935703
9.960000	41.935703
9.970000	41.935703
9.980000	41.935703
9.990000	41.935703
10.000000	41.681110
10.010000	41.681110
10.020000	41.681110
10.030000	41.681110
10.040000	41.681110
10.050000	41.681110
10.060000	41.681110
10.070000	41.681110
10.080000	41.681110
10.090000	41.681110
10.100000	41.681110
10.110000	41.681110
10.120000	41.681110
10.130000	41.681110
10.140000	41.681110
10.150000	41.681110
10.160000	41.681110
10.170000	41.681110
10.180000	41.681110
10.190000	41.681110
10.200000	41.681110
10.210000	41.681110
10.220000	41.681110
10.230000	41.681110
10.240000	41.681110
10.250000	41.681110
10.260000	41.681110
10.270000	41.681110
10.280000	41.681110
10.290000	41.681110
10.300000	41.681110
10.310000	41.681110
10.320000	41.681110
10.330000	41.681110
10.340000	41.681110
10.350000	41.681110
10.360000	41.681110
10.370000	41.681110
10.380000	41.681110
10.390000	41.681110
10.400000	41.681110
10.410000	41.681110
10.420000	41.681110
10.430000	41.681110
10.440000	41.681110
10.450000	41.681110
10.460000	41.681110
10.470000	41.681110
10.480000	41.681110
10.490000	41.681110
10.500000	41.405413
10.510000	41.405413
10.520000	41.405413
10.530000	41.405413
10.540000	41.405413
10.550000	41.405413
10.560000	41.405413
10.570000	41.405413
10.580000	41.405413
10.590000	41.405413
10.600000	41.405413
10.610000	41.405413
10.620000	41.405413
10.630000	41.405413
10.640000	41.405413
10.650000	41.405413
10.660000	41.405413
10.670000	41.405413
10.680000	41.405413
10.690000	41.405413
10.700000	41.405413
10.710000	41.405413
10.720000	41.405413
10.730000	41.405413
10.740000	41.405413
10.750000	41.405413
10.760000	41.405413
10.770000	41.405413
10.780000	41.405413
10.790000	41.405413
10.800000	41.405413
10.810000	41.405413
10.820000	41.405413
10.830000	41.405413
10.840000	41.405413
10.850000	41.405413
10.860000	41.405413
10.870000	41.405413
10.880000	41.405413
10.890000	41.405413
10.900000	41.405413
10.910000	41.405413
10.920000	41.405413
10.930000	41.405413
10.940000	41.405413
10.950000	41.405413
10.960000	41.405413
10.970000	41.405413
10.980000	41.405413
10.990000	41.405413
11.000000	41.115303
11.010000	41.115303
11.020000	41.115303
11.030000	41.115303
11.040000	41.115303
11.050000	41.115303
11.060000	41.115303
11.070000	41.115303
11.080000	41.115303
11.090000	41.115303
11.100000	41.115303
11.110000	41.115303
11.120000	41.115303
11.130000	41.115303
11.140000	41.115303
11.150000	41.115303
11.160000	41.115303
11.170000	41.115303
11.180000	41.115303
11.190000	41.115303
11.200000	41.115303
11.210000	41.115303
11.220000	41.115303
11.230000	41.115303
11.240000	41.115303
11.250000	41.115303
11.260000	41.115303
11.270000	41.115303
11.280000	41.115303
11.290000	41.115303
11.300000	41.115303
11.310000	41.115303
11.320000	41.115303
11.330000	41.115303
11.340000	41.115303
11.350000	41.115303
11.360000	41.115303
11.370000	41.115303
11.380000	41.115303
11.390000	41.115303
11.400000	41.115303
11.410000	41.115303
11.420000	41.115303
11.430000	41.115303
11.440000	41.115303
11.450000	41.115303
11.460000	41.115303
11.470000	41.115303
11.480000	41.115303
11.490000	41.115303
11.500000	40.813590
11.510000	40.813590
11.520000	40.813590
11.530000	40.813590
11.540000	40.813590
11.550000	40.813590
11.560000	40.813590
11.570000	40.813590
11.580000	40.813590
11.590000	40.813590
11.600000	40.813590
11.610000	40.813590
11.620000	40.813590
11.630000	40.813590
11.640000	40.813590
11.650000	40.813590
11.660000	40.813590
11.670000	40.813590
11.680000	40.813590
11.690000	40.813590
11.700000	40.813590
11.710000	40.813590
11.720000	40.813590
11.730000	40.813590
11.740000	40.813590
11.750000	40.813590
11.760000	40.813590
11.770000	40.813590
11.780000	40.813590
11.790000	40.813590
11.800000	40.813590
11.810000	40.813590
11.820000	40.813590
11.830000	40.813590
11.840000	40.813590
11.850000	40.813590
11.860000	40.813590
11.870000	40.813590
11.880000	40.813590
11.890000	40.813590
11.900000	40.813590
11.910000	40.813590
11.920000	40.813590
11.930000	40.813590
11.940000	40.813590
11.950000	40.813590
11.960000	40.813590
11.970000	40.813590
11.980000	40.813590
11.990000	40.813590
12.000000	40.504399
12.010000	40.504399
12.020000	40.504399
12.030000	40.504399
12.040000	40.504399
12.050000	40.504399
12.060000	40.504399
12.070000	40.504399
12.080000	40.504399
12.090000	40.504399
12.100000	40.504399
12.110000	40.504399
12.120000	40.504399
12.130000	40.504399
12.140000	40.504399
12.150000	40.504399
12.160000	40.504399
12.170000	40.504399
12.180000	40.504399
12.190000	40.504399
12.200000	40.504399
12.210000	40.504399
12.220000	40.504399
12.230000	40.504399
12.240000	40.504399
12.250000	40.504399
12.260000	40.504399
12.270000	40.504399
12.280000	40.504399
12.290000	40.504399
12.300000	40.504399
12.310000	40.504399
12.320000	40.504399
12.330000	40.504399
12.340000	40.504399
12.350000	40.504399
12.360000	40.504399
12.370000	40.504399
12.380000	40.504399
12.390000	40.504399
12.400000	40.504399
12.410000	40.504399
12.420000	40.504399
12.430000	40.504399
12.440000	40.504399
12.450000	40.504399
12.460000	40.504399
12.470000	40.504399
12.480000	40.504399
12.490000	40.504399
12.500000	40.192065
12.510000	40.192065
12.520000	40.192065
12.530000	40.192065
12.540000	40.192065
12.550000	40.192065
12.560000	40.192065
12.570000	40.192065
12.580000	40.192065
12.590000	40.192065
12.600000	40.192065
12.610000	40.192065
12.620000	40.192065
12.630000	40.192065
12.640000	40.192065
12.650000	40.192065
12.660000	40.192065
12.670000	40.192065
12.680000	40.192065
12.690000	40.192065
12.700000	40.192065
12.710000	40.192065
12.720000	40.192065
12.730000	40.192065
12.740000	40.192065
12.750000	40.192065
12.760000	40.192065
12.770000	40.192065
12.780000	40.192065
12.790000	40.192065
12.800000	40.192065
12.810000	40.192065
12.820000	40.192065
12.830000	40.192065
12.840000	40.192065
12.850000	40.192065
12.860000	40.192065
12.870000	40.192065
12.880000	40.192065
12.890000	40.192065
12.900000	40.192065
12.910000	40.192065
12.920000	40.192065
12.930000	40.192065
12.940000	40.192065
12.950000	40.192065
12.960000	40.192065
12.970000	40.192065
12.980000	40.192065
12.990000	40.192065
13.000000	39.882240
13.010000	39.882240
13.020000	39.882240
13.030000	39.882240
13.040000	39.882240
13.050000	39.882240
13.060000	39.882240
13.070000	39.882240
13.080000	39.882240
13.090000	39.882240
13.100000	39.882240
13.110000	39.882240
13.120000	39.882240
13.130000	39.882240
13.140000	39.882240
13.150000	39.882240
13.160000	39.882240
13.170000	39.882240
13.180000	39.882240
13.190000	39.882240
13.200000	39.882240
13.210000	39.882240
13.220000	39.882240
13.230000	39.882240
13.240000	39.882240
13.250000	39.882240
13.260000	39.882240
13.270000	39.882240
13.280000	39.882240
13.290000	39.882240
13.300000	39.882240
13.310000	39.882240
13.320000	39.882240
13.330000	39.882240
13.340000	39.882240
13.350000	39.882240
13.360000	39.882240
13.370000	39.882240
13.380000	39.882240
13.390000	39.882240
13.400000	39.882240
13.410000	39.882240
13.420000	39.882240
13.430000	39.882240
13.440000	39.882240
13.450000	39.882240
13.460000	39.882240
13.470000	39.882240
13.480000	39.882240
13.490000	39.882240
13.500000	39.575520
13.510000	39.575520
13.520000	39.575520
13.530000	39.575520
13.540000	39.575520
13.550000	39.575520
13.560000	39.575520
13.570000	39.575520
13.580000	39.575520
13.590000	39.575520
13.600000	39.575520
13.610000	39.575520
13.620000	39.575520
13.630000	39.575520
13.640000	39.575520
13.650000	39.575520
13.660000	39.575520
13.670000	39.575520
13.680000	39.575520
13.690000	39.575520
13.700000	39.575520
13.710000	39.575520
13.720000	39.575520
13.730000	39.575520
13.740000	39.575520
13.750000	39.575520
13.760000	39.575520
13.770000	39.575520
13.780000	39.575520
13.790000	39.575520
13.800000	39.575520
13.810000	39.575520
13.820000	39.575520
13.830000	39.575520
13.840000	39.575520
13.850000	39.575520
13.860000	39.575520
13.870000	39.575520
13.880000	39.575520
13.890000	39.575520
13.900000	39.575520
13.910000	39.575520
13.920000	39.575520
13.930000	39.575520
13.940000	39.575520
13.950000	39.575520
13.960000	39.575520
13.970000	39.575520
13.980000	39.575520
13.990000	39.575520
14.000000	39.273852
14.010000	39.273852
14.020000	39.273852
14.030000	39.273852
14.040000	39.273852
14.050000	39.273852
14.060000	39.273852
14.070000	39.273852
14.080000	39.273852
14.090000	39.273852
14.100000	39.273852
14.110000	39.273852
14.120000	39.273852
14.130000	39.273852
14.140000	39.273852
14.150000	39.273852
14.160000	39.273852
14.170000	39.273852
14.180000	39.273852
14.190000	39.273852
14.200000	39.273852
14.210000	39.273852
14.220000	39.273852
14.230000	39.273852
14.240000	39.273852
14.250000	39.273852
14.260000	39.273852
14.270000	39.273852
14.280000	39.273852
14.290000	39.273852
14.300000	39.273852
14.310000	39.273852
14.320000	39.273852
14.330000	39.273852
14.340000	39.273852
14.350000	39.273852
14.360000	39.273852
14.370000	39.273852
14.380000	39.273852
14.390000	39.273852
14.400000	39.273852
14.410000	39.273852
14.420000	39.273852
14.430000	39.273852
14.440000	39.273852
14.450000	39.273852
14.460000	39.273852
14.470000	39.273852
14.480000	39.273852
14.490000	39.273852
14.500000	38.975227
14.510000	38.975227
14.520000	38.975227
14.530000	38.975227
14.540000	38.975227
14.550000	38.975227
14.560000	38.975227
14.570000	38.975227
14.580000	38.975227
14.590000	38.975227
14.600000	38.975227
14.610000	38.975227
14.620000	38.975227
14.630000	38.975227
14.640000	38.975227
14.650000	38.975227
14.660000	38.975227
14.670000	38.975227
14.680000	38.975227
14.690000	38.975227
14.700000	38.975227
14.710000	38.975227
14.720000	38.975227
14.730000	38.975227
14.740000	38.975227
14.750000	38.975227
14.760000	38.975227
14.770000	38.975227
14.780000	38.975227
14.790000	38.975227
14.800000	38.975227
14.810000	38.975227
14.820000	38.975227
14.830000	38.975227
14.840000	38.975227
14.850000	38.975227
14.860000	38.975227
14.870000	38.975227
14.880000	38.975227
14.890000	38.975227
14.900000	38.975227
14.910000	38.975227
14.920000	38.975227
14.930000	38.975227
14.940000	38.975227
14.950000	38.975227
14.960000	38.975227
14.970000	38.975227
14.980000	38.975227
14.990000	38.975227
15.000000	38.680378
15.010000	38.680378
15.020000	38.680378
15.030000	38.680378
15.040000	38.680378
15.050000	38.680378
15.060000	38.680378
15.070000	38.680378
15.080000	38.680378
15.090000	38.680378
15.100000	38.680378
15.110000	38.680378
15.120000	38.680378
15.130000	38.680378
15.140000	38.680378
15.150000	38.680378
15.160000	38.680378
15.170000	38.680378
15.180000	38.680378
15.190000	38.680378
15.200000	38.680378
15.210000	38.680378
15.220000	38.680378
15.230000	38.680378
15.240000	38.680378
15.250000	38.680378
15.260000	38.680378
15.270000	38.680378
15.280000	38.680378
15.290000	38.680378
15.300000	38.680378
15.310000	38.680378
15.320000	38.680378
15.330000	38.680378
15.340000	38.680378
15.350000	38.680378
15.360000	38.680378
15.370000	38.680378
15.380000	38.680378
15.390000	38.680378
15.400000	38.680378
15.410000	38.680378
15.420000	38.680378
15.430000	38.680378
15.440000	38.680378
15.450000	38.680378
15.460000	38.680378
15.470000	38.680378
15.480000	38.680378
15.490000	38.680378
15.500000	38.393134
15.510000	38.393134
15.520000	38.393134
15.530000	38.393134
15.540000	38.393134
15.550000	38.393134
15.560000	38.393134
15.570000	38.393134
15.580000	38.393134
15.590000	38.393134
15.600000	38.393134
15.610000	38.393134
15.620000	38.393134
15.630000	38.393134
15.640000	38.393134
15.650000	38.393134
15.660000	38.393134
15.670000	38.393134
15.680000	38.393134
15.690000	38.393134
15.700000	38.393134
15.710000	38.393134
15.720000	38.393134
15.730000	38.393134
15.740000	38.393134
15.750000	38.393134
15.760000	38.393134
15.770000	38.393134
15.780000	38.393134
15.790000	38.393134
15.800000	38.393134
15.810000	38.393134
15.820000	38.393134
15.830000	38.393134
15.840000	38.393134
15.850000	38.393134
15.860000	38.393134
15.870000	38.393134
15.880000	38.393134
15.890000	38.393134
15.900000	38.393134
15.910000	38.393134
15.920000	38.393134
15.930000	38.393134
15.940000	38.393134
15.950000	38.393134
15.960000	38.393134
15.970000	38.393134
15.980000	38.393134
15.990000	38.393134
16.000000	38.116859
16.010000	38.116859
16.020000	38.116859
16.030000	38.116859
16.040000	38.116859
16.050000	38.116859
16.060000	38.116859
16.070000	38.116859
16.080000	38.116859
16.090000	38.116859
16.100000	38.116859
16.110000	38.116859
16.120000	38.116859
16.130000	38.116859
16.140000	38.116859
16.150000	38.116859
16.160000	38.116859
16.170000	38.116859
16.180000	38.116859
16.190000	38.116859
16.200000	38.116859
16.210000	38.116859
16.220000	38.116859
16.230000	38.116859
16.240000	38.116859
16.250000	38.116859
16.260000	38.116859
16.270000	38.116859
16.280000	38.116859
16.290000	38.116859
16.300000	38.116859
16.310000	38.116859
16.320000	38.116859
16.330000	38.116859
16.340000	38.116859
16.350000	38.116859
16.360000	38.116859
16.370000	38.116859
16.380000	38.116859
16.390000	38.116859
16.400000	38.116859
16.410000	38.116859
16.420000	38.116859
16.430000	38.116859
16.440000	38.116859
16.450000	38.116859
16.460000	38.116859
16.470000	38.116859
16.480000	38.116859
16.490000	38.116859
16.500000	37.846740
16.510000	37.846740
16.520000	37.846740
16.530000	37.846740
16.540000	37.846740
16.550000	37.846740
16.560000	37.846740
16.570000	37.846740
16.580000	37.846740
16.590000	37.846740
16.600000	37.846740
16.610000	37.846740
16.620000	37.846740
16.630000	37.846740
16.640000	37.846740
16.650000	37.846740
16.660000	37.846740
16.670000	37.846740
16.680000	37.846740
16.690000	37.846740
16.700000	37.846740
16.710000	37.846740
16.720000	37.846740
16.730000	37.846740
16.740000	37.846740
16.750000	37.846740
16.760000	37.846740
16.770000	37.846740
16.780000	37.846740
16.790000	37.846740
16.800000	37.846740
16.810000	37.846740
16.820000	37.846740
16.830000	37.846740
16.840000	37.846740
16.850000	37.846740
16.860000	37.846740
16.870000	37.846740
16.880000	37.846740
16.890000	37.846740
16.900000	37.846740
16.910000	37.846740
16.920000	37.846740
16.930000	37.846740
16.940000	37.846740
16.950000	37.846740
16.960000	37.846740
16.970000	37.846740
16.980000	37.846740
16.990000	37.846740
17.000000	37.583530
17.010000	37.583530
17.020000	37.583530
17.030000	37.583530
17.040000	37.583530
17.050000	37.583530
17.060000	37.583530
17.070000	37.583530
17.080000	37.583530
17.090000	37.583530
17.100000	37.583530
17.110000	37.583530
17.120000	37.583530
17.130000	37.583530
17.140000	37.583530
17.150000	37.583530
17.160000	37.583530
17.170000	37.583530
17.180000	37.583530
17.190000	37.583530
17.200000	37.583530
17.210000	37.583530
17.220000	37.583530
17.230000	37.583530
17.240000	37.583530
17.250000	37.583530
17.260000	37.583530
17.270000	37.583530
17.280000	37.583530
17.290000	37.583530
17.300000	37.583530
17.310000	37.583530
17.320000	37.583530
17.330000	37.583530
17.340000	37.583530
17.350000	37.583530
17.360000	37.583530
17.370000	37.583530
17.380000	37.583530
17.390000	37.583530
17.400000	37.583530
17.410000	37.583530
17.420000	37.583530
17.430000	37.583530
17.440000	37.583530
17.450000	37.583530
17.460000	37.583530
17.470000	37.583530
17.480000	37.583530
17.490000	37.583530
17.500000	37.328122
17.510000	37.328122
17.520000	37.328122
17.530000	37.328122
17.540000	37.328122
17.550000	37.328122
17.560000	37.328122
17.570000	37.328122
17.580000	37.328122
17.590000	37.328122
17.600000	37.328122
17.610000	37.328122
17.620000	37.328122
17.630000	37.328122
17.640000	37.328122
17.650000	37.328122
17.660000	37.328122
17.670000	37.328122
17.680000	37.328122
17.690000	37.328122
17.700000	37.328122
17.710000	37.328122
17.720000	37.328122
17.730000	37.328122
17.740000	37.328122
17.750000	37.328122
17.760000	37.328122
17.770000	37.328122
17.780000	37.328122
17.790000	37.328122
17.800000	37.328122
17.810000	37.328122
17.820000	37.328122
17.830000	37.328122
17.840000	37.328122
17.850000	37.328122
17.860000	37.328122
17.870000	37.328122
17.880000	37.328122
17.890000	37.328122
17.900000	37.328122
17.910000	37.328122
17.920000	37.328122
17.930000	37.328122
17.940000	37.328122
17.950000	37.328122
17.960000	37.328122
17.970000	37.328122
17.980000	37.328122
17.990000	37.328122
