LabVIEW Measurement	
Writer_Version	2
Reader_Version	2
Separator	Tab
Decimal_Separator	.
Multi_Headings	No
X_Columns	One
Time_Pref	Absolute
Operator	biomech-dyno
Date	2023/05/24
Time	15:19:49.9492761999999796612
***End_of_Header***	
	
Channels	1	
Samples	10	
Date	2023/05/24	
Time	16:24:04.6377324999996231825	
X_Dimension	Time	
X0	0.0000000000000000E+0	
Delta_X	0.010000	
***End_of_Header***		
X_Value	Untitled	Comment
0.000000	25.090380
0.010000	25.090380
0.020000	25.090380
0.030000	25.090380
0.040000	25.090380
0.050000	25.090380
0.060000	25.090380
0.070000	25.090380
0.080000	25.090380
0.090000	25.090380
0.100000	25.090380
0.110000	25.090380
0.120000	25.090380
0.130000	25.090380
0.140000	25.090380
0.150000	25.090380
0.160000	25.090380
0.170000	25.090380
0.180000	25.090380
0.190000	25.090380
0.200000	25.090380
0.210000	25.090380
0.220000	25.090380
0.230000	25.090380
0.240000	25.090380
0.250000	25.090380
0.260000	25.090380
0.270000	25.090380
0.280000	25.090380
0.290000	25.090380
0.300000	25.090380
0.310000	25.090380
0.320000	25.090380
0.330000	25.090380
0.340000	25.090380
0.350000	25.090380
0.360000	25.090380
0.370000	25.090380
0.380000	25.090380
0.390000	25.090380
0.400000	25.090380
0.410000	25.090380
0.420000	25.090380
0.430000	25.090380
0.440000	25.090380
0.450000	25.090380
0.460000	25.090380
0.470000	25.090380
0.480000	25.090380
0.490000	25.090380
0.500000	25.137042
0.510000	25.137042
0.520000	25.137042
0.530000	25.137042
0.540000	25.137042
0.550000	25.137042
0.560000	25.137042
0.570000	25.137042
0.580000	25.137042
0.590000	25.137042
0.600000	25.137042
0.610000	25.137042
0.620000	25.137042
0.630000	25.137042
0.640000	25.137042
0.650000	25.137042
0.660000	25.137042
0.670000	25.137042
0.680000	25.137042
0.690000	25.137042
0.700000	25.137042
0.710000	25.137042
0.720000	25.137042
0.730000	25.137042
0.740000	25.137042
0.750000	25.137042
0.760000	25.137042
0.770000	25.137042
0.780000	25.137042
0.790000	25.137042
0.800000	25.137042
0.810000	25.137042
0.820000	25.137042
0.830000	25.137042
0.840000	25.137042
0.850000	25.137042
0.860000	25.137042
0.870000	25.137042
0.880000	25.137042
0.890000	25.137042
0.900000	25.137042
0.910000	25.137042
0.920000	25.137042
0.930000	25.137042
0.940000	25.137042
0.950000	25.137042
0.960000	25.137042
0.970000	25.137042
0.980000	25.137042
0.990000	25.137042
1.000000	25.646469
1.010000	25.646469
1.020000	25.646469
1.030000	25.646469
1.040000	25.646469
1.050000	25.646469
1.060000	25.646469
1.070000	25.646469
1.080000	25.646469
1.090000	25.646469
1.100000	25.646469
1.110000	25.646469
1.120000	25.646469
1.130000	25.646469
1.140000	25.646469
1.150000	25.646469
1.160000	25.646469
1.170000	25.646469
1.180000	25.646469
1.190000	25.646469
1.200000	25.646469
1.210000	25.646469
1.220000	25.646469
1.230000	25.646469
1.240000	25.646469
1.250000	25.646469
1.260000	25.646469
1.270000	25.646469
1.280000	25.646469
1.290000	25.646469
1.300000	25.646469
1.310000	25.646469
1.320000	25.646469
1.330000	25.646469
1.340000	25.646469
1.350000	25.646469
1.360000	25.646469
1.370000	25.646469
1.380000	25.646469
1.390000	25.646469
1.400000	25.646469
1.410000	25.646469
1.420000	25.646469
1.430000	25.646469
1.440000	25.646469
1.450000	25.646469
1.460000	25.646469
1.470000	25.646469
1.480000	25.646469
1.490000	25.646469
1.500000	26.845145
1.510000	26.845145
1.520000	26.845145
1.530000	26.845145
1.540000	26.845145
1.550000	26.845145
1.560000	26.845145
1.570000	26.845145
1.580000	26.845145
1.590000	26.845145
1.600000	26.845145
1.610000	26.845145
1.620000	26.845145
1.630000	26.845145
1.640000	26.845145
1.650000	26.845145
1.660000	26.845145
1.670000	26.845145
1.680000	26.845145
1.690000	26.845145
1.700000	26.845145
1.710000	26.845145
1.720000	26.845145
1.730000	26.845145
1.740000	26.845145
1.750000	26.845145
1.760000	26.845145
1.770000	26.845145
1.780000	26.845145
1.790000	26.845145
1.800000	26.845145
1.810000	26.845145
1.820000	26.845145
1.830000	26.845145
1.840000	26.845145
1.850000	26.845145
1.860000	26.845145
1.870000	26.845145
1.880000	26.845145
1.890000	26.845145
1.900000	26.845145
1.910000	26.845145
1.920000	26.845145
1.930000	26.845145
1.940000	26.845145
1.950000	26.845145
1.960000	26.845145
1.970000	26.845145
1.980000	26.845145
1.990000	26.845145
2.000000	28.616761
2.010000	28.616761
2.020000	28.616761
2.030000	28.616761
2.040000	28.616761
2.050000	28.616761
2.060000	28.616761
2.070000	28.616761
2.080000	28.616761
2.090000	28.616761
2.100000	28.616761
2.110000	28.616761
2.120000	28.616761
2.130000	28.616761
2.140000	28.616761
2.150000	28.616761
2.160000	28.616761
2.170000	28.616761
2.180000	28.616761
2.190000	28.616761
2.200000	28.616761
2.210000	28.616761
2.220000	28.616761
2.230000	28.616761
2.240000	28.616761
2.250000	28.616761
2.260000	28.616761
2.270000	28.616761
2.280000	28.616761
2.290000	28.616761
2.300000	28.616761
2.310000	28.616761
2.320000	28.616761
2.330000	28.616761
2.340000	28.616761
2.350000	28.616761
2.360000	28.616761
2.370000	28.616761
2.380000	28.616761
2.390000	28.616761
2.400000	28.616761
2.410000	28.616761
2.420000	28.616761
2.430000	28.616761
2.440000	28.616761
2.450000	28.616761
2.460000	28.616761
2.470000	28.616761
2.480000	28.616761
2.490000	28.616761
2.500000	30.807084
2.510000	30.807084
2.520000	30.807084
2.530000	30.807084
2.540000	30.807084
2.550000	30.807084
2.560000	30.807084
2.570000	30.807084
2.580000	30.807084
2.590000	30.807084
2.600000	30.807084
2.610000	30.807084
2.620000	30.807084
2.630000	30.807084
2.640000	30.807084
2.650000	30.807084
2.660000	30.807084
2.670000	30.807084
2.680000	30.807084
2.690000	30.807084
2.700000	30.807084
2.710000	30.807084
2.720000	30.807084
2.730000	30.807084
2.740000	30.807084
2.750000	30.807084
2.760000	30.807084
2.770000	30.807084
2.780000	30.807084
2.790000	30.807084
2.800000	30.807084
2.810000	30.807084
2.820000	30.807084
2.830000	30.807084
2.840000	30.807084
2.850000	30.807084
2.860000	30.807084
2.870000	30.807084
2.880000	30.807084
2.890000	30.807084
2.900000	30.807084
2.910000	30.807084
2.920000	30.807084
2.930000	30.807084
2.940000	30.807084
2.950000	30.807084
2.960000	30.807084
2.970000	30.807084
2.980000	30.807084
2.990000	30.807084
3.000000	33.315143
3.010000	33.315143
3.020000	33.315143
3.030000	33.315143
3.040000	33.315143
3.050000	33.315143
3.060000	33.315143
3.070000	33.315143
3.080000	33.315143
3.090000	33.315143
3.100000	33.315143
3.110000	33.315143
3.120000	33.315143
3.130000	33.315143
3.140000	33.315143
3.150000	33.315143
3.160000	33.315143
3.170000	33.315143
3.180000	33.315143
3.190000	33.315143
3.200000	33.315143
3.210000	33.315143
3.220000	33.315143
3.230000	33.315143
3.240000	33.315143
3.250000	33.315143
3.260000	33.315143
3.270000	33.315143
3.280000	33.315143
3.290000	33.315143
3.300000	33.315143
3.310000	33.315143
3.320000	33.315143
3.330000	33.315143
3.340000	33.315143
3.350000	33.315143
3.360000	33.315143
3.370000	33.315143
3.380000	33.315143
3.390000	33.315143
3.400000	33.315143
3.410000	33.315143
3.420000	33.315143
3.430000	33.315143
3.440000	33.315143
3.450000	33.315143
3.460000	33.315143
3.470000	33.315143
3.480000	33.315143
3.490000	33.315143
3.500000	35.900745
3.510000	35.900745
3.520000	35.900745
3.530000	35.900745
3.540000	35.900745
3.550000	35.900745
3.560000	35.900745
3.570000	35.900745
3.580000	35.900745
3.590000	35.900745
3.600000	35.900745
3.610000	35.900745
3.620000	35.900745
3.630000	35.900745
3.640000	35.900745
3.650000	35.900745
3.660000	35.900745
3.670000	35.900745
3.680000	35.900745
3.690000	35.900745
3.700000	35.900745
3.710000	35.900745
3.720000	35.900745
3.730000	35.900745
3.740000	35.900745
3.750000	35.900745
3.760000	35.900745
3.770000	35.900745
3.780000	35.900745
3.790000	35.900745
3.800000	35.900745
3.810000	35.900745
3.820000	35.900745
3.830000	35.900745
3.840000	35.900745
3.850000	35.900745
3.860000	35.900745
3.870000	35.900745
3.880000	35.900745
3.890000	35.900745
3.900000	35.900745
3.910000	35.900745
3.920000	35.900745
3.930000	35.900745
3.940000	35.900745
3.950000	35.900745
3.960000	35.900745
3.970000	35.900745
3.980000	35.900745
3.990000	35.900745
4.000000	37.991584
4.010000	37.991584
4.020000	37.991584
4.030000	37.991584
4.040000	37.991584
4.050000	37.991584
4.060000	37.991584
4.070000	37.991584
4.080000	37.991584
4.090000	37.991584
4.100000	37.991584
4.110000	37.991584
4.120000	37.991584
4.130000	37.991584
4.140000	37.991584
4.150000	37.991584
4.160000	37.991584
4.170000	37.991584
4.180000	37.991584
4.190000	37.991584
4.200000	37.991584
4.210000	37.991584
4.220000	37.991584
4.230000	37.991584
4.240000	37.991584
4.250000	37.991584
4.260000	37.991584
4.270000	37.991584
4.280000	37.991584
4.290000	37.991584
4.300000	37.991584
4.310000	37.991584
4.320000	37.991584
4.330000	37.991584
4.340000	37.991584
4.350000	37.991584
4.360000	37.991584
4.370000	37.991584
4.380000	37.991584
4.390000	37.991584
4.400000	37.991584
4.410000	37.991584
4.420000	37.991584
4.430000	37.991584
4.440000	37.991584
4.450000	37.991584
4.460000	37.991584
4.470000	37.991584
4.480000	37.991584
4.490000	37.991584
4.500000	39.571588
4.510000	39.571588
4.520000	39.571588
4.530000	39.571588
4.540000	39.571588
4.550000	39.571588
4.560000	39.571588
4.570000	39.571588
4.580000	39.571588
4.590000	39.571588
4.600000	39.571588
4.610000	39.571588
4.620000	39.571588
4.630000	39.571588
4.640000	39.571588
4.650000	39.571588
4.660000	39.571588
4.670000	39.571588
4.680000	39.571588
4.690000	39.571588
4.700000	39.571588
4.710000	39.571588
4.720000	39.571588
4.730000	39.571588
4.740000	39.571588
4.750000	39.571588
4.760000	39.571588
4.770000	39.571588
4.780000	39.571588
4.790000	39.571588
4.800000	39.571588
4.810000	39.571588
4.820000	39.571588
4.830000	39.571588
4.840000	39.571588
4.850000	39.571588
4.860000	39.571588
4.870000	39.571588
4.880000	39.571588
4.890000	39.571588
4.900000	39.571588
4.910000	39.571588
4.920000	39.571588
4.930000	39.571588
4.940000	39.571588
4.950000	39.571588
4.960000	39.571588
4.970000	39.571588
4.980000	39.571588
4.990000	39.571588
5.000000	40.705002
5.010000	40.705002
5.020000	40.705002
5.030000	40.705002
5.040000	40.705002
5.050000	40.705002
5.060000	40.705002
5.070000	40.705002
5.080000	40.705002
5.090000	40.705002
5.100000	40.705002
5.110000	40.705002
5.120000	40.705002
5.130000	40.705002
5.140000	40.705002
5.150000	40.705002
5.160000	40.705002
5.170000	40.705002
5.180000	40.705002
5.190000	40.705002
5.200000	40.705002
5.210000	40.705002
5.220000	40.705002
5.230000	40.705002
5.240000	40.705002
5.250000	40.705002
5.260000	40.705002
5.270000	40.705002
5.280000	40.705002
5.290000	40.705002
5.300000	40.705002
5.310000	40.705002
5.320000	40.705002
5.330000	40.705002
5.340000	40.705002
5.350000	40.705002
5.360000	40.705002
5.370000	40.705002
5.380000	40.705002
5.390000	40.705002
5.400000	40.705002
5.410000	40.705002
5.420000	40.705002
5.430000	40.705002
5.440000	40.705002
5.450000	40.705002
5.460000	40.705002
5.470000	40.705002
5.480000	40.705002
5.490000	40.705002
5.500000	41.484509
5.510000	41.484509
5.520000	41.484509
5.530000	41.484509
5.540000	41.484509
5.550000	41.484509
5.560000	41.484509
5.570000	41.484509
5.580000	41.484509
5.590000	41.484509
5.600000	41.484509
5.610000	41.484509
5.620000	41.484509
5.630000	41.484509
5.640000	41.484509
5.650000	41.484509
5.660000	41.484509
5.670000	41.484509
5.680000	41.484509
5.690000	41.484509
5.700000	41.484509
5.710000	41.484509
5.720000	41.484509
5.730000	41.484509
5.740000	41.484509
5.750000	41.484509
5.760000	41.484509
5.770000	41.484509
5.780000	41.484509
5.790000	41.484509
5.800000	41.484509
5.810000	41.484509
5.820000	41.484509
5.830000	41.484509
5.840000	41.484509
5.850000	41.484509
5.860000	41.484509
5.870000	41.484509
5.880000	41.484509
5.890000	41.484509
5.900000	41.484509
5.910000	41.484509
5.920000	41.484509
5.930000	41.484509
5.940000	41.484509
5.950000	41.484509
5.960000	41.484509
5.970000	41.484509
5.980000	41.484509
5.990000	41.484509
6.000000	41.995215
6.010000	41.995215
6.020000	41.995215
6.030000	41.995215
6.040000	41.995215
6.050000	41.995215
6.060000	41.995215
6.070000	41.995215
6.080000	41.995215
6.090000	41.995215
6.100000	41.995215
6.110000	41.995215
6.120000	41.995215
6.130000	41.995215
6.140000	41.995215
6.150000	41.995215
6.160000	41.995215
6.170000	41.995215
6.180000	41.995215
6.190000	41.995215
6.200000	41.995215
6.210000	41.995215
6.220000	41.995215
6.230000	41.995215
6.240000	41.995215
6.250000	41.995215
6.260000	41.995215
6.270000	41.995215
6.280000	41.995215
6.290000	41.995215
6.300000	41.995215
6.310000	41.995215
6.320000	41.995215
6.330000	41.995215
6.340000	41.995215
6.350000	41.995215
6.360000	41.995215
6.370000	41.995215
6.380000	41.995215
6.390000	41.995215
6.400000	41.995215
6.410000	41.995215
6.420000	41.995215
6.430000	41.995215
6.440000	41.995215
6.450000	41.995215
6.460000	41.995215
6.470000	41.995215
6.480000	41.995215
6.490000	41.995215
6.500000	42.297956
6.510000	42.297956
6.520000	42.297956
6.530000	42.297956
6.540000	42.297956
6.550000	42.297956
6.560000	42.297956
6.570000	42.297956
6.580000	42.297956
6.590000	42.297956
6.600000	42.297956
6.610000	42.297956
6.620000	42.297956
6.630000	42.297956
6.640000	42.297956
6.650000	42.297956
6.660000	42.297956
6.670000	42.297956
6.680000	42.297956
6.690000	42.297956
6.700000	42.297956
6.710000	42.297956
6.720000	42.297956
6.730000	42.297956
6.740000	42.297956
6.750000	42.297956
6.760000	42.297956
6.770000	42.297956
6.780000	42.297956
6.790000	42.297956
6.800000	42.297956
6.810000	42.297956
6.820000	42.297956
6.830000	42.297956
6.840000	42.297956
6.850000	42.297956
6.860000	42.297956
6.870000	42.297956
6.880000	42.297956
6.890000	42.297956
6.900000	42.297956
6.910000	42.297956
6.920000	42.297956
6.930000	42.297956
6.940000	42.297956
6.950000	42.297956
6.960000	42.297956
6.970000	42.297956
6.980000	42.297956
6.990000	42.297956
7.000000	42.442360
7.010000	42.442360
7.020000	42.442360
7.030000	42.442360
7.040000	42.442360
7.050000	42.442360
7.060000	42.442360
7.070000	42.442360
7.080000	42.442360
7.090000	42.442360
7.100000	42.442360
7.110000	42.442360
7.120000	42.442360
7.130000	42.442360
7.140000	42.442360
7.150000	42.442360
7.160000	42.442360
7.170000	42.442360
7.180000	42.442360
7.190000	42.442360
7.200000	42.442360
7.210000	42.442360
7.220000	42.442360
7.230000	42.442360
7.240000	42.442360
7.250000	42.442360
7.260000	42.442360
7.270000	42.442360
7.280000	42.442360
7.290000	42.442360
7.300000	42.442360
7.310000	42.442360
7.320000	42.442360
7.330000	42.442360
7.340000	42.442360
7.350000	42.442360
7.360000	42.442360
7.370000	42.442360
7.380000	42.442360
7.390000	42.442360
7.400000	42.442360
7.410000	42.442360
7.420000	42.442360
7.430000	42.442360
7.440000	42.442360
7.450000	42.442360
7.460000	42.442360
7.470000	42.442360
7.480000	42.442360
7.490000	42.442360
7.500000	42.465341
7.510000	42.465341
7.520000	42.465341
7.530000	42.465341
7.540000	42.465341
7.550000	42.465341
7.560000	42.465341
7.570000	42.465341
7.580000	42.465341
7.590000	42.465341
7.600000	42.465341
7.610000	42.465341
7.620000	42.465341
7.630000	42.465341
7.640000	42.465341
7.650000	42.465341
7.660000	42.465341
7.670000	42.465341
7.680000	42.465341
7.690000	42.465341
7.700000	42.465341
7.710000	42.465341
7.720000	42.465341
7.730000	42.465341
7.740000	42.465341
7.750000	42.465341
7.760000	42.465341
7.770000	42.465341
7.780000	42.465341
7.790000	42.465341
7.800000	42.465341
7.810000	42.465341
7.820000	42.465341
7.830000	42.465341
7.840000	42.465341
7.850000	42.465341
7.860000	42.465341
7.870000	42.465341
7.880000	42.465341
7.890000	42.465341
7.900000	42.465341
7.910000	42.465341
7.920000	42.465341
7.930000	42.465341
7.940000	42.465341
7.950000	42.465341
7.960000	42.465341
7.970000	42.465341
7.980000	42.465341
7.990000	42.465341
8.000000	42.400665
8.010000	42.400665
8.020000	42.400665
8.030000	42.400665
8.040000	42.400665
8.050000	42.400665
8.060000	42.400665
8.070000	42.400665
8.080000	42.400665
8.090000	42.400665
8.100000	42.400665
8.110000	42.400665
8.120000	42.400665
8.130000	42.400665
8.140000	42.400665
8.150000	42.400665
8.160000	42.400665
8.170000	42.400665
8.180000	42.400665
8.190000	42.400665
8.200000	42.400665
8.210000	42.400665
8.220000	42.400665
8.230000	42.400665
8.240000	42.400665
8.250000	42.400665
8.260000	42.400665
8.270000	42.400665
8.280000	42.400665
8.290000	42.400665
8.300000	42.400665
8.310000	42.400665
8.320000	42.400665
8.330000	42.400665
8.340000	42.400665
8.350000	42.400665
8.360000	42.400665
8.370000	42.400665
8.380000	42.400665
8.390000	42.400665
8.400000	42.400665
8.410000	42.400665
8.420000	42.400665
8.430000	42.400665
8.440000	42.400665
8.450000	42.400665
8.460000	42.400665
8.470000	42.400665
8.480000	42.400665
8.490000	42.400665
8.500000	42.264859
8.510000	42.264859
8.520000	42.264859
8.530000	42.264859
8.540000	42.264859
8.550000	42.264859
8.560000	42.264859
8.570000	42.264859
8.580000	42.264859
8.590000	42.264859
8.600000	42.264859
8.610000	42.264859
8.620000	42.264859
8.630000	42.264859
8.640000	42.264859
8.650000	42.264859
8.660000	42.264859
8.670000	42.264859
8.680000	42.264859
8.690000	42.264859
8.700000	42.264859
8.710000	42.264859
8.720000	42.264859
8.730000	42.264859
8.740000	42.264859
8.750000	42.264859
8.760000	42.264859
8.770000	42.264859
8.780000	42.264859
8.790000	42.264859
8.800000	42.264859
8.810000	42.264859
8.820000	42.264859
8.830000	42.264859
8.840000	42.264859
8.850000	42.264859
8.860000	42.264859
8.870000	42.264859
8.880000	42.264859
8.890000	42.264859
8.900000	42.264859
8.910000	42.264859
8.920000	42.264859
8.930000	42.264859
8.940000	42.264859
8.950000	42.264859
8.960000	42.264859
8.970000	42.264859
8.980000	42.264859
8.990000	42.264859
9.000000	42.077612
9.010000	42.077612
9.020000	42.077612
9.030000	42.077612
9.040000	42.077612
9.050000	42.077612
9.060000	42.077612
9.070000	42.077612
9.080000	42.077612
9.090000	42.077612
9.100000	42.077612
9.110000	42.077612
9.120000	42.077612
9.130000	42.077612
9.140000	42.077612
9.150000	42.077612
9.160000	42.077612
9.170000	42.077612
9.180000	42.077612
9.190000	42.077612
9.200000	42.077612
9.210000	42.077612
9.220000	42.077612
9.230000	42.077612
9.240000	42.077612
9.250000	42.077612
9.260000	42.077612
9.270000	42.077612
9.280000	42.077612
9.290000	42.077612
9.300000	42.077612
9.310000	42.077612
9.320000	42.077612
9.330000	42.077612
9.340000	42.077612
9.350000	42.077612
9.360000	42.077612
9.370000	42.077612
9.380000	42.077612
9.390000	42.077612
9.400000	42.077612
9.410000	42.077612
9.420000	42.077612
9.430000	42.077612
9.440000	42.077612
9.450000	42.077612
9.460000	42.077612
9.470000	42.077612
9.480000	42.077612
9.490000	42.077612
9.500000	41.847328
9.510000	41.847328
9.520000	41.847328
9.530000	41.847328
9.540000	41.847328
9.550000	41.847328
9.560000	41.847328
9.570000	41.847328
9.580000	41.847328
9.590000	41.847328
9.600000	41.847328
9.610000	41.847328
9.620000	41.847328
9.630000	41.847328
9.640000	41.847328
9.650000	41.847328
9.660000	41.847328
9.670000	41.847328
9.680000	41.847328
9.690000	41.847328
9.700000	41.847328
9.710000	41.847328
9.720000	41.847328
9.730000	41.847328
9.740000	41.847328
9.750000	41.847328
9.760000	41.847328
9.770000	41.847328
9.780000	41.847328
9.790000	41.847328
9.800000	41.847328
9.810000	41.847328
9.820000	41.847328
9.830000	41.847328
9.840000	41.847328
9.850000	41.847328
9.860000	41.847328
9.870000	41.847328
9.880000	41.847328
9.890000	41.847328
9.900000	41.847328
9.910000	41.847328
9.920000	41.847328
9.930000	41.847328
9.940000	41.847328
9.950000	41.847328
9.960000	41.847328
9.970000	41.847328
9.980000	41.847328
9.990000	41.847328
10.000000	41.587471
10.010000	41.587471
10.020000	41.587471
10.030000	41.587471
10.040000	41.587471
10.050000	41.587471
10.060000	41.587471
10.070000	41.587471
10.080000	41.587471
10.090000	41.587471
10.100000	41.587471
10.110000	41.587471
10.120000	41.587471
10.130000	41.587471
10.140000	41.587471
10.150000	41.587471
10.160000	41.587471
10.170000	41.587471
10.180000	41.587471
10.190000	41.587471
10.200000	41.587471
10.210000	41.587471
10.220000	41.587471
10.230000	41.587471
10.240000	41.587471
10.250000	41.587471
10.260000	41.587471
10.270000	41.587471
10.280000	41.587471
10.290000	41.587471
10.300000	41.587471
10.310000	41.587471
10.320000	41.587471
10.330000	41.587471
10.340000	41.587471
10.350000	41.587471
10.360000	41.587471
10.370000	41.587471
10.380000	41.587471
10.390000	41.587471
10.400000	41.587471
10.410000	41.587471
10.420000	41.587471
10.430000	41.587471
10.440000	41.587471
10.450000	41.587471
10.460000	41.587471
10.470000	41.587471
10.480000	41.587471
10.490000	41.587471
10.500000	41.308372
10.510000	41.308372
10.520000	41.308372
10.530000	41.308372
10.540000	41.308372
10.550000	41.308372
10.560000	41.308372
10.570000	41.308372
10.580000	41.308372
10.590000	41.308372
10.600000	41.308372
10.610000	41.308372
10.620000	41.308372
10.630000	41.308372
10.640000	41.308372
10.650000	41.308372
10.660000	41.308372
10.670000	41.308372
10.680000	41.308372
10.690000	41.308372
10.700000	41.308372
10.710000	41.308372
10.720000	41.308372
10.730000	41.308372
10.740000	41.308372
10.750000	41.308372
10.760000	41.308372
10.770000	41.308372
10.780000	41.308372
10.790000	41.308372
10.800000	41.308372
10.810000	41.308372
10.820000	41.308372
10.830000	41.308372
10.840000	41.308372
10.850000	41.308372
10.860000	41.308372
10.870000	41.308372
10.880000	41.308372
10.890000	41.308372
10.900000	41.308372
10.910000	41.308372
10.920000	41.308372
10.930000	41.308372
10.940000	41.308372
10.950000	41.308372
10.960000	41.308372
10.970000	41.308372
10.980000	41.308372
10.990000	41.308372
11.000000	41.016021
11.010000	41.016021
11.020000	41.016021
11.030000	41.016021
11.040000	41.016021
11.050000	41.016021
11.060000	41.016021
11.070000	41.016021
11.080000	41.016021
11.090000	41.016021
11.100000	41.016021
11.110000	41.016021
11.120000	41.016021
11.130000	41.016021
11.140000	41.016021
11.150000	41.016021
11.160000	41.016021
11.170000	41.016021
11.180000	41.016021
11.190000	41.016021
11.200000	41.016021
11.210000	41.016021
11.220000	41.016021
11.230000	41.016021
11.240000	41.016021
11.250000	41.016021
11.260000	41.016021
11.270000	41.016021
11.280000	41.016021
11.290000	41.016021
11.300000	41.016021
11.310000	41.016021
11.320000	41.016021
11.330000	41.016021
11.340000	41.016021
11.350000	41.016021
11.360000	41.016021
11.370000	41.016021
11.380000	41.016021
11.390000	41.016021
11.400000	41.016021
11.410000	41.016021
11.420000	41.016021
11.430000	41.016021
11.440000	41.016021
11.450000	41.016021
11.460000	41.016021
11.470000	41.016021
11.480000	41.016021
11.490000	41.016021
11.500000	40.715110
11.510000	40.715110
11.520000	40.715110
11.530000	40.715110
11.540000	40.715110
11.550000	40.715110
11.560000	40.715110
11.570000	40.715110
11.580000	40.715110
11.590000	40.715110
11.600000	40.715110
11.610000	40.715110
11.620000	40.715110
11.630000	40.715110
11.640000	40.715110
11.650000	40.715110
11.660000	40.715110
11.670000	40.715110
11.680000	40.715110
11.690000	40.715110
11.700000	40.715110
11.710000	40.715110
11.720000	40.715110
11.730000	40.715110
11.740000	40.715110
11.750000	40.715110
11.760000	40.715110
11.770000	40.715110
11.780000	40.715110
11.790000	40.715110
11.800000	40.715110
11.810000	40.715110
11.820000	40.715110
11.830000	40.715110
11.840000	40.715110
11.850000	40.715110
11.860000	40.715110
11.870000	40.715110
11.880000	40.715110
11.890000	40.715110
11.900000	40.715110
11.910000	40.715110
11.920000	40.715110
11.930000	40.715110
11.940000	40.715110
11.950000	40.715110
11.960000	40.715110
11.970000	40.715110
11.980000	40.715110
11.990000	40.715110
12.000000	40.408468
12.010000	40.408468
12.020000	40.408468
12.030000	40.408468
12.040000	40.408468
12.050000	40.408468
12.060000	40.408468
12.070000	40.408468
12.080000	40.408468
12.090000	40.408468
12.100000	40.408468
12.110000	40.408468
12.120000	40.408468
12.130000	40.408468
12.140000	40.408468
12.150000	40.408468
12.160000	40.408468
12.170000	40.408468
12.180000	40.408468
12.190000	40.408468
12.200000	40.408468
12.210000	40.408468
12.220000	40.408468
12.230000	40.408468
12.240000	40.408468
12.250000	40.408468
12.260000	40.408468
12.270000	40.408468
12.280000	40.408468
12.290000	40.408468
12.300000	40.408468
12.310000	40.408468
12.320000	40.408468
12.330000	40.408468
12.340000	40.408468
12.350000	40.408468
12.360000	40.408468
12.370000	40.408468
12.380000	40.408468
12.390000	40.408468
12.400000	40.408468
12.410000	40.408468
12.420000	40.408468
12.430000	40.408468
12.440000	40.408468
12.450000	40.408468
12.460000	40.408468
12.470000	40.408468
12.480000	40.408468
12.490000	40.408468
12.500000	40.096646
12.510000	40.096646
12.520000	40.096646
12.530000	40.096646
12.540000	40.096646
12.550000	40.096646
12.560000	40.096646
12.570000	40.096646
12.580000	40.096646
12.590000	40.096646
12.600000	40.096646
12.610000	40.096646
12.620000	40.096646
12.630000	40.096646
12.640000	40.096646
12.650000	40.096646
12.660000	40.096646
12.670000	40.096646
12.680000	40.096646
12.690000	40.096646
12.700000	40.096646
12.710000	40.096646
12.720000	40.096646
12.730000	40.096646
12.740000	40.096646
12.750000	40.096646
12.760000	40.096646
12.770000	40.096646
12.780000	40.096646
12.790000	40.096646
12.800000	40.096646
12.810000	40.096646
12.820000	40.096646
12.830000	40.096646
12.840000	40.096646
12.850000	40.096646
12.860000	40.096646
12.870000	40.096646
12.880000	40.096646
12.890000	40.096646
12.900000	40.096646
12.910000	40.096646
12.920000	40.096646
12.930000	40.096646
12.940000	40.096646
12.950000	40.096646
12.960000	40.096646
12.970000	40.096646
12.980000	40.096646
12.990000	40.096646
13.000000	39.786249
13.010000	39.786249
13.020000	39.786249
13.030000	39.786249
13.040000	39.786249
13.050000	39.786249
13.060000	39.786249
13.070000	39.786249
13.080000	39.786249
13.090000	39.786249
13.100000	39.786249
13.110000	39.786249
13.120000	39.786249
13.130000	39.786249
13.140000	39.786249
13.150000	39.786249
13.160000	39.786249
13.170000	39.786249
13.180000	39.786249
13.190000	39.786249
13.200000	39.786249
13.210000	39.786249
13.220000	39.786249
13.230000	39.786249
13.240000	39.786249
13.250000	39.786249
13.260000	39.786249
13.270000	39.786249
13.280000	39.786249
13.290000	39.786249
13.300000	39.786249
13.310000	39.786249
13.320000	39.786249
13.330000	39.786249
13.340000	39.786249
13.350000	39.786249
13.360000	39.786249
13.370000	39.786249
13.380000	39.786249
13.390000	39.786249
13.400000	39.786249
13.410000	39.786249
13.420000	39.786249
13.430000	39.786249
13.440000	39.786249
13.450000	39.786249
13.460000	39.786249
13.470000	39.786249
13.480000	39.786249
13.490000	39.786249
13.500000	39.474412
13.510000	39.474412
13.520000	39.474412
13.530000	39.474412
13.540000	39.474412
13.550000	39.474412
13.560000	39.474412
13.570000	39.474412
13.580000	39.474412
13.590000	39.474412
13.600000	39.474412
13.610000	39.474412
13.620000	39.474412
13.630000	39.474412
13.640000	39.474412
13.650000	39.474412
13.660000	39.474412
13.670000	39.474412
13.680000	39.474412
13.690000	39.474412
13.700000	39.474412
13.710000	39.474412
13.720000	39.474412
13.730000	39.474412
13.740000	39.474412
13.750000	39.474412
13.760000	39.474412
13.770000	39.474412
13.780000	39.474412
13.790000	39.474412
13.800000	39.474412
13.810000	39.474412
13.820000	39.474412
13.830000	39.474412
13.840000	39.474412
13.850000	39.474412
13.860000	39.474412
13.870000	39.474412
13.880000	39.474412
13.890000	39.474412
13.900000	39.474412
13.910000	39.474412
13.920000	39.474412
13.930000	39.474412
13.940000	39.474412
13.950000	39.474412
13.960000	39.474412
13.970000	39.474412
13.980000	39.474412
13.990000	39.474412
14.000000	39.172161
14.010000	39.172161
14.020000	39.172161
14.030000	39.172161
14.040000	39.172161
14.050000	39.172161
14.060000	39.172161
14.070000	39.172161
14.080000	39.172161
14.090000	39.172161
14.100000	39.172161
14.110000	39.172161
14.120000	39.172161
14.130000	39.172161
14.140000	39.172161
14.150000	39.172161
14.160000	39.172161
14.170000	39.172161
14.180000	39.172161
14.190000	39.172161
14.200000	39.172161
14.210000	39.172161
14.220000	39.172161
14.230000	39.172161
14.240000	39.172161
14.250000	39.172161
14.260000	39.172161
14.270000	39.172161
14.280000	39.172161
14.290000	39.172161
14.300000	39.172161
14.310000	39.172161
14.320000	39.172161
14.330000	39.172161
14.340000	39.172161
14.350000	39.172161
14.360000	39.172161
14.370000	39.172161
14.380000	39.172161
14.390000	39.172161
14.400000	39.172161
14.410000	39.172161
14.420000	39.172161
14.430000	39.172161
14.440000	39.172161
14.450000	39.172161
14.460000	39.172161
14.470000	39.172161
14.480000	39.172161
14.490000	39.172161
14.500000	38.878311
14.510000	38.878311
14.520000	38.878311
14.530000	38.878311
14.540000	38.878311
14.550000	38.878311
14.560000	38.878311
14.570000	38.878311
14.580000	38.878311
14.590000	38.878311
14.600000	38.878311
14.610000	38.878311
14.620000	38.878311
14.630000	38.878311
14.640000	38.878311
14.650000	38.878311
14.660000	38.878311
14.670000	38.878311
14.680000	38.878311
14.690000	38.878311
14.700000	38.878311
14.710000	38.878311
14.720000	38.878311
14.730000	38.878311
14.740000	38.878311
14.750000	38.878311
14.760000	38.878311
14.770000	38.878311
14.780000	38.878311
14.790000	38.878311
14.800000	38.878311
14.810000	38.878311
14.820000	38.878311
14.830000	38.878311
14.840000	38.878311
14.850000	38.878311
14.860000	38.878311
14.870000	38.878311
14.880000	38.878311
14.890000	38.878311
14.900000	38.878311
14.910000	38.878311
14.920000	38.878311
14.930000	38.878311
14.940000	38.878311
14.950000	38.878311
14.960000	38.878311
14.970000	38.878311
14.980000	38.878311
14.990000	38.878311
15.000000	38.589799
15.010000	38.589799
15.020000	38.589799
15.030000	38.589799
15.040000	38.589799
15.050000	38.589799
15.060000	38.589799
15.070000	38.589799
15.080000	38.589799
15.090000	38.589799
15.100000	38.589799
15.110000	38.589799
15.120000	38.589799
15.130000	38.589799
15.140000	38.589799
15.150000	38.589799
15.160000	38.589799
15.170000	38.589799
15.180000	38.589799
15.190000	38.589799
15.200000	38.589799
15.210000	38.589799
15.220000	38.589799
15.230000	38.589799
15.240000	38.589799
15.250000	38.589799
15.260000	38.589799
15.270000	38.589799
15.280000	38.589799
15.290000	38.589799
15.300000	38.589799
15.310000	38.589799
15.320000	38.589799
15.330000	38.589799
15.340000	38.589799
15.350000	38.589799
15.360000	38.589799
15.370000	38.589799
15.380000	38.589799
15.390000	38.589799
15.400000	38.589799
15.410000	38.589799
15.420000	38.589799
15.430000	38.589799
15.440000	38.589799
15.450000	38.589799
15.460000	38.589799
15.470000	38.589799
15.480000	38.589799
15.490000	38.589799
15.500000	38.306938
15.510000	38.306938
15.520000	38.306938
15.530000	38.306938
15.540000	38.306938
15.550000	38.306938
15.560000	38.306938
15.570000	38.306938
15.580000	38.306938
15.590000	38.306938
15.600000	38.306938
15.610000	38.306938
15.620000	38.306938
15.630000	38.306938
15.640000	38.306938
15.650000	38.306938
15.660000	38.306938
15.670000	38.306938
15.680000	38.306938
15.690000	38.306938
15.700000	38.306938
15.710000	38.306938
15.720000	38.306938
15.730000	38.306938
15.740000	38.306938
15.750000	38.306938
15.760000	38.306938
15.770000	38.306938
15.780000	38.306938
15.790000	38.306938
15.800000	38.306938
15.810000	38.306938
15.820000	38.306938
15.830000	38.306938
15.840000	38.306938
15.850000	38.306938
15.860000	38.306938
15.870000	38.306938
15.880000	38.306938
15.890000	38.306938
15.900000	38.306938
15.910000	38.306938
15.920000	38.306938
15.930000	38.306938
15.940000	38.306938
15.950000	38.306938
15.960000	38.306938
15.970000	38.306938
15.980000	38.306938
15.990000	38.306938
16.000000	38.027859
16.010000	38.027859
16.020000	38.027859
16.030000	38.027859
16.040000	38.027859
16.050000	38.027859
16.060000	38.027859
16.070000	38.027859
16.080000	38.027859
16.090000	38.027859
16.100000	38.027859
16.110000	38.027859
16.120000	38.027859
16.130000	38.027859
16.140000	38.027859
16.150000	38.027859
16.160000	38.027859
16.170000	38.027859
16.180000	38.027859
16.190000	38.027859
16.200000	38.027859
16.210000	38.027859
16.220000	38.027859
16.230000	38.027859
16.240000	38.027859
16.250000	38.027859
16.260000	38.027859
16.270000	38.027859
16.280000	38.027859
16.290000	38.027859
16.300000	38.027859
16.310000	38.027859
16.320000	38.027859
16.330000	38.027859
16.340000	38.027859
16.350000	38.027859
16.360000	38.027859
16.370000	38.027859
16.380000	38.027859
16.390000	38.027859
16.400000	38.027859
16.410000	38.027859
16.420000	38.027859
16.430000	38.027859
16.440000	38.027859
16.450000	38.027859
16.460000	38.027859
16.470000	38.027859
16.480000	38.027859
16.490000	38.027859
16.500000	37.756168
16.510000	37.756168
16.520000	37.756168
16.530000	37.756168
16.540000	37.756168
16.550000	37.756168
16.560000	37.756168
16.570000	37.756168
16.580000	37.756168
16.590000	37.756168
16.600000	37.756168
16.610000	37.756168
16.620000	37.756168
16.630000	37.756168
16.640000	37.756168
16.650000	37.756168
16.660000	37.756168
16.670000	37.756168
16.680000	37.756168
16.690000	37.756168
16.700000	37.756168
16.710000	37.756168
16.720000	37.756168
16.730000	37.756168
16.740000	37.756168
16.750000	37.756168
16.760000	37.756168
16.770000	37.756168
16.780000	37.756168
16.790000	37.756168
16.800000	37.756168
16.810000	37.756168
16.820000	37.756168
16.830000	37.756168
16.840000	37.756168
16.850000	37.756168
16.860000	37.756168
16.870000	37.756168
16.880000	37.756168
16.890000	37.756168
16.900000	37.756168
16.910000	37.756168
16.920000	37.756168
16.930000	37.756168
16.940000	37.756168
16.950000	37.756168
16.960000	37.756168
16.970000	37.756168
16.980000	37.756168
16.990000	37.756168
17.000000	37.491282
17.010000	37.491282
17.020000	37.491282
17.030000	37.491282
17.040000	37.491282
17.050000	37.491282
17.060000	37.491282
17.070000	37.491282
17.080000	37.491282
17.090000	37.491282
17.100000	37.491282
17.110000	37.491282
17.120000	37.491282
17.130000	37.491282
17.140000	37.491282
17.150000	37.491282
17.160000	37.491282
17.170000	37.491282
17.180000	37.491282
17.190000	37.491282
17.200000	37.491282
17.210000	37.491282
17.220000	37.491282
17.230000	37.491282
17.240000	37.491282
17.250000	37.491282
17.260000	37.491282
17.270000	37.491282
17.280000	37.491282
17.290000	37.491282
17.300000	37.491282
17.310000	37.491282
17.320000	37.491282
17.330000	37.491282
17.340000	37.491282
17.350000	37.491282
17.360000	37.491282
17.370000	37.491282
17.380000	37.491282
17.390000	37.491282
17.400000	37.491282
17.410000	37.491282
17.420000	37.491282
17.430000	37.491282
17.440000	37.491282
17.450000	37.491282
17.460000	37.491282
17.470000	37.491282
17.480000	37.491282
17.490000	37.491282
17.500000	37.233482
17.510000	37.233482
17.520000	37.233482
17.530000	37.233482
17.540000	37.233482
17.550000	37.233482
17.560000	37.233482
17.570000	37.233482
17.580000	37.233482
17.590000	37.233482
17.600000	37.233482
17.610000	37.233482
17.620000	37.233482
17.630000	37.233482
17.640000	37.233482
17.650000	37.233482
17.660000	37.233482
17.670000	37.233482
17.680000	37.233482
17.690000	37.233482
17.700000	37.233482
17.710000	37.233482
17.720000	37.233482
17.730000	37.233482
17.740000	37.233482
17.750000	37.233482
17.760000	37.233482
17.770000	37.233482
17.780000	37.233482
17.790000	37.233482
17.800000	37.233482
17.810000	37.233482
17.820000	37.233482
17.830000	37.233482
17.840000	37.233482
17.850000	37.233482
17.860000	37.233482
17.870000	37.233482
17.880000	37.233482
17.890000	37.233482
17.900000	37.233482
17.910000	37.233482
17.920000	37.233482
17.930000	37.233482
17.940000	37.233482
17.950000	37.233482
17.960000	37.233482
17.970000	37.233482
17.980000	37.233482
17.990000	37.233482
