LabVIEW Measurement	
Writer_Version	2
Reader_Version	2
Separator	Tab
Decimal_Separator	.
Multi_Headings	No
X_Columns	One
Time_Pref	Absolute
Operator	biomech-dyno
Date	2023/05/23
Time	16:26:31.1792034999998606061
***End_of_Header***	
	
Channels	1	
Samples	10	
Date	2023/05/23	
Time	17:54:02.8561901999995100664	
X_Dimension	Time	
X0	0.0000000000000000E+0	
Delta_X	0.010000	
***End_of_Header***		
X_Value	Untitled	Comment
0.000000	25.171429
0.010000	25.171429
0.020000	25.171429
0.030000	25.171429
0.040000	25.171429
0.050000	25.171429
0.060000	25.171429
0.070000	25.171429
0.080000	25.171429
0.090000	25.171429
0.100000	25.171429
0.110000	25.171429
0.120000	25.171429
0.130000	25.171429
0.140000	25.171429
0.150000	25.171429
0.160000	25.171429
0.170000	25.171429
0.180000	25.171429
0.190000	25.171429
0.200000	25.171429
0.210000	25.171429
0.220000	25.171429
0.230000	25.171429
0.240000	25.171429
0.250000	25.171429
0.260000	25.171429
0.270000	25.171429
0.280000	25.171429
0.290000	25.171429
0.300000	25.171429
0.310000	25.171429
0.320000	25.171429
0.330000	25.171429
0.340000	25.171429
0.350000	25.171429
0.360000	25.171429
0.370000	25.171429
0.380000	25.171429
0.390000	25.171429
0.400000	25.171429
0.410000	25.171429
0.420000	25.171429
0.430000	25.171429
0.440000	25.171429
0.450000	25.171429
0.460000	25.171429
0.470000	25.171429
0.480000	25.171429
0.490000	25.171429
0.500000	25.234833
0.510000	25.234833
0.520000	25.234833
0.530000	25.234833
0.540000	25.234833
0.550000	25.234833
0.560000	25.234833
0.570000	25.234833
0.580000	25.234833
0.590000	25.234833
0.600000	25.234833
0.610000	25.234833
0.620000	25.234833
0.630000	25.234833
0.640000	25.234833
0.650000	25.234833
0.660000	25.234833
0.670000	25.234833
0.680000	25.234833
0.690000	25.234833
0.700000	25.234833
0.710000	25.234833
0.720000	25.234833
0.730000	25.234833
0.740000	25.234833
0.750000	25.234833
0.760000	25.234833
0.770000	25.234833
0.780000	25.234833
0.790000	25.234833
0.800000	25.234833
0.810000	25.234833
0.820000	25.234833
0.830000	25.234833
0.840000	25.234833
0.850000	25.234833
0.860000	25.234833
0.870000	25.234833
0.880000	25.234833
0.890000	25.234833
0.900000	25.234833
0.910000	25.234833
0.920000	25.234833
0.930000	25.234833
0.940000	25.234833
0.950000	25.234833
0.960000	25.234833
0.970000	25.234833
0.980000	25.234833
0.990000	25.234833
1.000000	25.911551
1.010000	25.911551
1.020000	25.911551
1.030000	25.911551
1.040000	25.911551
1.050000	25.911551
1.060000	25.911551
1.070000	25.911551
1.080000	25.911551
1.090000	25.911551
1.100000	25.911551
1.110000	25.911551
1.120000	25.911551
1.130000	25.911551
1.140000	25.911551
1.150000	25.911551
1.160000	25.911551
1.170000	25.911551
1.180000	25.911551
1.190000	25.911551
1.200000	25.911551
1.210000	25.911551
1.220000	25.911551
1.230000	25.911551
1.240000	25.911551
1.250000	25.911551
1.260000	25.911551
1.270000	25.911551
1.280000	25.911551
1.290000	25.911551
1.300000	25.911551
1.310000	25.911551
1.320000	25.911551
1.330000	25.911551
1.340000	25.911551
1.350000	25.911551
1.360000	25.911551
1.370000	25.911551
1.380000	25.911551
1.390000	25.911551
1.400000	25.911551
1.410000	25.911551
1.420000	25.911551
1.430000	25.911551
1.440000	25.911551
1.450000	25.911551
1.460000	25.911551
1.470000	25.911551
1.480000	25.911551
1.490000	25.911551
1.500000	27.508692
1.510000	27.508692
1.520000	27.508692
1.530000	27.508692
1.540000	27.508692
1.550000	27.508692
1.560000	27.508692
1.570000	27.508692
1.580000	27.508692
1.590000	27.508692
1.600000	27.508692
1.610000	27.508692
1.620000	27.508692
1.630000	27.508692
1.640000	27.508692
1.650000	27.508692
1.660000	27.508692
1.670000	27.508692
1.680000	27.508692
1.690000	27.508692
1.700000	27.508692
1.710000	27.508692
1.720000	27.508692
1.730000	27.508692
1.740000	27.508692
1.750000	27.508692
1.760000	27.508692
1.770000	27.508692
1.780000	27.508692
1.790000	27.508692
1.800000	27.508692
1.810000	27.508692
1.820000	27.508692
1.830000	27.508692
1.840000	27.508692
1.850000	27.508692
1.860000	27.508692
1.870000	27.508692
1.880000	27.508692
1.890000	27.508692
1.900000	27.508692
1.910000	27.508692
1.920000	27.508692
1.930000	27.508692
1.940000	27.508692
1.950000	27.508692
1.960000	27.508692
1.970000	27.508692
1.980000	27.508692
1.990000	27.508692
2.000000	29.875163
2.010000	29.875163
2.020000	29.875163
2.030000	29.875163
2.040000	29.875163
2.050000	29.875163
2.060000	29.875163
2.070000	29.875163
2.080000	29.875163
2.090000	29.875163
2.100000	29.875163
2.110000	29.875163
2.120000	29.875163
2.130000	29.875163
2.140000	29.875163
2.150000	29.875163
2.160000	29.875163
2.170000	29.875163
2.180000	29.875163
2.190000	29.875163
2.200000	29.875163
2.210000	29.875163
2.220000	29.875163
2.230000	29.875163
2.240000	29.875163
2.250000	29.875163
2.260000	29.875163
2.270000	29.875163
2.280000	29.875163
2.290000	29.875163
2.300000	29.875163
2.310000	29.875163
2.320000	29.875163
2.330000	29.875163
2.340000	29.875163
2.350000	29.875163
2.360000	29.875163
2.370000	29.875163
2.380000	29.875163
2.390000	29.875163
2.400000	29.875163
2.410000	29.875163
2.420000	29.875163
2.430000	29.875163
2.440000	29.875163
2.450000	29.875163
2.460000	29.875163
2.470000	29.875163
2.480000	29.875163
2.490000	29.875163
2.500000	32.819707
2.510000	32.819707
2.520000	32.819707
2.530000	32.819707
2.540000	32.819707
2.550000	32.819707
2.560000	32.819707
2.570000	32.819707
2.580000	32.819707
2.590000	32.819707
2.600000	32.819707
2.610000	32.819707
2.620000	32.819707
2.630000	32.819707
2.640000	32.819707
2.650000	32.819707
2.660000	32.819707
2.670000	32.819707
2.680000	32.819707
2.690000	32.819707
2.700000	32.819707
2.710000	32.819707
2.720000	32.819707
2.730000	32.819707
2.740000	32.819707
2.750000	32.819707
2.760000	32.819707
2.770000	32.819707
2.780000	32.819707
2.790000	32.819707
2.800000	32.819707
2.810000	32.819707
2.820000	32.819707
2.830000	32.819707
2.840000	32.819707
2.850000	32.819707
2.860000	32.819707
2.870000	32.819707
2.880000	32.819707
2.890000	32.819707
2.900000	32.819707
2.910000	32.819707
2.920000	32.819707
2.930000	32.819707
2.940000	32.819707
2.950000	32.819707
2.960000	32.819707
2.970000	32.819707
2.980000	32.819707
2.990000	32.819707
3.000000	36.211902
3.010000	36.211902
3.020000	36.211902
3.030000	36.211902
3.040000	36.211902
3.050000	36.211902
3.060000	36.211902
3.070000	36.211902
3.080000	36.211902
3.090000	36.211902
3.100000	36.211902
3.110000	36.211902
3.120000	36.211902
3.130000	36.211902
3.140000	36.211902
3.150000	36.211902
3.160000	36.211902
3.170000	36.211902
3.180000	36.211902
3.190000	36.211902
3.200000	36.211902
3.210000	36.211902
3.220000	36.211902
3.230000	36.211902
3.240000	36.211902
3.250000	36.211902
3.260000	36.211902
3.270000	36.211902
3.280000	36.211902
3.290000	36.211902
3.300000	36.211902
3.310000	36.211902
3.320000	36.211902
3.330000	36.211902
3.340000	36.211902
3.350000	36.211902
3.360000	36.211902
3.370000	36.211902
3.380000	36.211902
3.390000	36.211902
3.400000	36.211902
3.410000	36.211902
3.420000	36.211902
3.430000	36.211902
3.440000	36.211902
3.450000	36.211902
3.460000	36.211902
3.470000	36.211902
3.480000	36.211902
3.490000	36.211902
3.500000	39.802400
3.510000	39.802400
3.520000	39.802400
3.530000	39.802400
3.540000	39.802400
3.550000	39.802400
3.560000	39.802400
3.570000	39.802400
3.580000	39.802400
3.590000	39.802400
3.600000	39.802400
3.610000	39.802400
3.620000	39.802400
3.630000	39.802400
3.640000	39.802400
3.650000	39.802400
3.660000	39.802400
3.670000	39.802400
3.680000	39.802400
3.690000	39.802400
3.700000	39.802400
3.710000	39.802400
3.720000	39.802400
3.730000	39.802400
3.740000	39.802400
3.750000	39.802400
3.760000	39.802400
3.770000	39.802400
3.780000	39.802400
3.790000	39.802400
3.800000	39.802400
3.810000	39.802400
3.820000	39.802400
3.830000	39.802400
3.840000	39.802400
3.850000	39.802400
3.860000	39.802400
3.870000	39.802400
3.880000	39.802400
3.890000	39.802400
3.900000	39.802400
3.910000	39.802400
3.920000	39.802400
3.930000	39.802400
3.940000	39.802400
3.950000	39.802400
3.960000	39.802400
3.970000	39.802400
3.980000	39.802400
3.990000	39.802400
4.000000	42.832613
4.010000	42.832613
4.020000	42.832613
4.030000	42.832613
4.040000	42.832613
4.050000	42.832613
4.060000	42.832613
4.070000	42.832613
4.080000	42.832613
4.090000	42.832613
4.100000	42.832613
4.110000	42.832613
4.120000	42.832613
4.130000	42.832613
4.140000	42.832613
4.150000	42.832613
4.160000	42.832613
4.170000	42.832613
4.180000	42.832613
4.190000	42.832613
4.200000	42.832613
4.210000	42.832613
4.220000	42.832613
4.230000	42.832613
4.240000	42.832613
4.250000	42.832613
4.260000	42.832613
4.270000	42.832613
4.280000	42.832613
4.290000	42.832613
4.300000	42.832613
4.310000	42.832613
4.320000	42.832613
4.330000	42.832613
4.340000	42.832613
4.350000	42.832613
4.360000	42.832613
4.370000	42.832613
4.380000	42.832613
4.390000	42.832613
4.400000	42.832613
4.410000	42.832613
4.420000	42.832613
4.430000	42.832613
4.440000	42.832613
4.450000	42.832613
4.460000	42.832613
4.470000	42.832613
4.480000	42.832613
4.490000	42.832613
4.500000	45.117948
4.510000	45.117948
4.520000	45.117948
4.530000	45.117948
4.540000	45.117948
4.550000	45.117948
4.560000	45.117948
4.570000	45.117948
4.580000	45.117948
4.590000	45.117948
4.600000	45.117948
4.610000	45.117948
4.620000	45.117948
4.630000	45.117948
4.640000	45.117948
4.650000	45.117948
4.660000	45.117948
4.670000	45.117948
4.680000	45.117948
4.690000	45.117948
4.700000	45.117948
4.710000	45.117948
4.720000	45.117948
4.730000	45.117948
4.740000	45.117948
4.750000	45.117948
4.760000	45.117948
4.770000	45.117948
4.780000	45.117948
4.790000	45.117948
4.800000	45.117948
4.810000	45.117948
4.820000	45.117948
4.830000	45.117948
4.840000	45.117948
4.850000	45.117948
4.860000	45.117948
4.870000	45.117948
4.880000	45.117948
4.890000	45.117948
4.900000	45.117948
4.910000	45.117948
4.920000	45.117948
4.930000	45.117948
4.940000	45.117948
4.950000	45.117948
4.960000	45.117948
4.970000	45.117948
4.980000	45.117948
4.990000	45.117948
5.000000	46.787049
5.010000	46.787049
5.020000	46.787049
5.030000	46.787049
5.040000	46.787049
5.050000	46.787049
5.060000	46.787049
5.070000	46.787049
5.080000	46.787049
5.090000	46.787049
5.100000	46.787049
5.110000	46.787049
5.120000	46.787049
5.130000	46.787049
5.140000	46.787049
5.150000	46.787049
5.160000	46.787049
5.170000	46.787049
5.180000	46.787049
5.190000	46.787049
5.200000	46.787049
5.210000	46.787049
5.220000	46.787049
5.230000	46.787049
5.240000	46.787049
5.250000	46.787049
5.260000	46.787049
5.270000	46.787049
5.280000	46.787049
5.290000	46.787049
5.300000	46.787049
5.310000	46.787049
5.320000	46.787049
5.330000	46.787049
5.340000	46.787049
5.350000	46.787049
5.360000	46.787049
5.370000	46.787049
5.380000	46.787049
5.390000	46.787049
5.400000	46.787049
5.410000	46.787049
5.420000	46.787049
5.430000	46.787049
5.440000	46.787049
5.450000	46.787049
5.460000	46.787049
5.470000	46.787049
5.480000	46.787049
5.490000	46.787049
5.500000	47.953635
5.510000	47.953635
5.520000	47.953635
5.530000	47.953635
5.540000	47.953635
5.550000	47.953635
5.560000	47.953635
5.570000	47.953635
5.580000	47.953635
5.590000	47.953635
5.600000	47.953635
5.610000	47.953635
5.620000	47.953635
5.630000	47.953635
5.640000	47.953635
5.650000	47.953635
5.660000	47.953635
5.670000	47.953635
5.680000	47.953635
5.690000	47.953635
5.700000	47.953635
5.710000	47.953635
5.720000	47.953635
5.730000	47.953635
5.740000	47.953635
5.750000	47.953635
5.760000	47.953635
5.770000	47.953635
5.780000	47.953635
5.790000	47.953635
5.800000	47.953635
5.810000	47.953635
5.820000	47.953635
5.830000	47.953635
5.840000	47.953635
5.850000	47.953635
5.860000	47.953635
5.870000	47.953635
5.880000	47.953635
5.890000	47.953635
5.900000	47.953635
5.910000	47.953635
5.920000	47.953635
5.930000	47.953635
5.940000	47.953635
5.950000	47.953635
5.960000	47.953635
5.970000	47.953635
5.980000	47.953635
5.990000	47.953635
6.000000	48.743445
6.010000	48.743445
6.020000	48.743445
6.030000	48.743445
6.040000	48.743445
6.050000	48.743445
6.060000	48.743445
6.070000	48.743445
6.080000	48.743445
6.090000	48.743445
6.100000	48.743445
6.110000	48.743445
6.120000	48.743445
6.130000	48.743445
6.140000	48.743445
6.150000	48.743445
6.160000	48.743445
6.170000	48.743445
6.180000	48.743445
6.190000	48.743445
6.200000	48.743445
6.210000	48.743445
6.220000	48.743445
6.230000	48.743445
6.240000	48.743445
6.250000	48.743445
6.260000	48.743445
6.270000	48.743445
6.280000	48.743445
6.290000	48.743445
6.300000	48.743445
6.310000	48.743445
6.320000	48.743445
6.330000	48.743445
6.340000	48.743445
6.350000	48.743445
6.360000	48.743445
6.370000	48.743445
6.380000	48.743445
6.390000	48.743445
6.400000	48.743445
6.410000	48.743445
6.420000	48.743445
6.430000	48.743445
6.440000	48.743445
6.450000	48.743445
6.460000	48.743445
6.470000	48.743445
6.480000	48.743445
6.490000	48.743445
6.500000	49.235715
6.510000	49.235715
6.520000	49.235715
6.530000	49.235715
6.540000	49.235715
6.550000	49.235715
6.560000	49.235715
6.570000	49.235715
6.580000	49.235715
6.590000	49.235715
6.600000	49.235715
6.610000	49.235715
6.620000	49.235715
6.630000	49.235715
6.640000	49.235715
6.650000	49.235715
6.660000	49.235715
6.670000	49.235715
6.680000	49.235715
6.690000	49.235715
6.700000	49.235715
6.710000	49.235715
6.720000	49.235715
6.730000	49.235715
6.740000	49.235715
6.750000	49.235715
6.760000	49.235715
6.770000	49.235715
6.780000	49.235715
6.790000	49.235715
6.800000	49.235715
6.810000	49.235715
6.820000	49.235715
6.830000	49.235715
6.840000	49.235715
6.850000	49.235715
6.860000	49.235715
6.870000	49.235715
6.880000	49.235715
6.890000	49.235715
6.900000	49.235715
6.910000	49.235715
6.920000	49.235715
6.930000	49.235715
6.940000	49.235715
6.950000	49.235715
6.960000	49.235715
6.970000	49.235715
6.980000	49.235715
6.990000	49.235715
7.000000	49.475494
7.010000	49.475494
7.020000	49.475494
7.030000	49.475494
7.040000	49.475494
7.050000	49.475494
7.060000	49.475494
7.070000	49.475494
7.080000	49.475494
7.090000	49.475494
7.100000	49.475494
7.110000	49.475494
7.120000	49.475494
7.130000	49.475494
7.140000	49.475494
7.150000	49.475494
7.160000	49.475494
7.170000	49.475494
7.180000	49.475494
7.190000	49.475494
7.200000	49.475494
7.210000	49.475494
7.220000	49.475494
7.230000	49.475494
7.240000	49.475494
7.250000	49.475494
7.260000	49.475494
7.270000	49.475494
7.280000	49.475494
7.290000	49.475494
7.300000	49.475494
7.310000	49.475494
7.320000	49.475494
7.330000	49.475494
7.340000	49.475494
7.350000	49.475494
7.360000	49.475494
7.370000	49.475494
7.380000	49.475494
7.390000	49.475494
7.400000	49.475494
7.410000	49.475494
7.420000	49.475494
7.430000	49.475494
7.440000	49.475494
7.450000	49.475494
7.460000	49.475494
7.470000	49.475494
7.480000	49.475494
7.490000	49.475494
7.500000	49.526484
7.510000	49.526484
7.520000	49.526484
7.530000	49.526484
7.540000	49.526484
7.550000	49.526484
7.560000	49.526484
7.570000	49.526484
7.580000	49.526484
7.590000	49.526484
7.600000	49.526484
7.610000	49.526484
7.620000	49.526484
7.630000	49.526484
7.640000	49.526484
7.650000	49.526484
7.660000	49.526484
7.670000	49.526484
7.680000	49.526484
7.690000	49.526484
7.700000	49.526484
7.710000	49.526484
7.720000	49.526484
7.730000	49.526484
7.740000	49.526484
7.750000	49.526484
7.760000	49.526484
7.770000	49.526484
7.780000	49.526484
7.790000	49.526484
7.800000	49.526484
7.810000	49.526484
7.820000	49.526484
7.830000	49.526484
7.840000	49.526484
7.850000	49.526484
7.860000	49.526484
7.870000	49.526484
7.880000	49.526484
7.890000	49.526484
7.900000	49.526484
7.910000	49.526484
7.920000	49.526484
7.930000	49.526484
7.940000	49.526484
7.950000	49.526484
7.960000	49.526484
7.970000	49.526484
7.980000	49.526484
7.990000	49.526484
8.000000	49.431593
8.010000	49.431593
8.020000	49.431593
8.030000	49.431593
8.040000	49.431593
8.050000	49.431593
8.060000	49.431593
8.070000	49.431593
8.080000	49.431593
8.090000	49.431593
8.100000	49.431593
8.110000	49.431593
8.120000	49.431593
8.130000	49.431593
8.140000	49.431593
8.150000	49.431593
8.160000	49.431593
8.170000	49.431593
8.180000	49.431593
8.190000	49.431593
8.200000	49.431593
8.210000	49.431593
8.220000	49.431593
8.230000	49.431593
8.240000	49.431593
8.250000	49.431593
8.260000	49.431593
8.270000	49.431593
8.280000	49.431593
8.290000	49.431593
8.300000	49.431593
8.310000	49.431593
8.320000	49.431593
8.330000	49.431593
8.340000	49.431593
8.350000	49.431593
8.360000	49.431593
8.370000	49.431593
8.380000	49.431593
8.390000	49.431593
8.400000	49.431593
8.410000	49.431593
8.420000	49.431593
8.430000	49.431593
8.440000	49.431593
8.450000	49.431593
8.460000	49.431593
8.470000	49.431593
8.480000	49.431593
8.490000	49.431593
8.500000	49.253439
8.510000	49.253439
8.520000	49.253439
8.530000	49.253439
8.540000	49.253439
8.550000	49.253439
8.560000	49.253439
8.570000	49.253439
8.580000	49.253439
8.590000	49.253439
8.600000	49.253439
8.610000	49.253439
8.620000	49.253439
8.630000	49.253439
8.640000	49.253439
8.650000	49.253439
8.660000	49.253439
8.670000	49.253439
8.680000	49.253439
8.690000	49.253439
8.700000	49.253439
8.710000	49.253439
8.720000	49.253439
8.730000	49.253439
8.740000	49.253439
8.750000	49.253439
8.760000	49.253439
8.770000	49.253439
8.780000	49.253439
8.790000	49.253439
8.800000	49.253439
8.810000	49.253439
8.820000	49.253439
8.830000	49.253439
8.840000	49.253439
8.850000	49.253439
8.860000	49.253439
8.870000	49.253439
8.880000	49.253439
8.890000	49.253439
8.900000	49.253439
8.910000	49.253439
8.920000	49.253439
8.930000	49.253439
8.940000	49.253439
8.950000	49.253439
8.960000	49.253439
8.970000	49.253439
8.980000	49.253439
8.990000	49.253439
9.000000	49.006367
9.010000	49.006367
9.020000	49.006367
9.030000	49.006367
9.040000	49.006367
9.050000	49.006367
9.060000	49.006367
9.070000	49.006367
9.080000	49.006367
9.090000	49.006367
9.100000	49.006367
9.110000	49.006367
9.120000	49.006367
9.130000	49.006367
9.140000	49.006367
9.150000	49.006367
9.160000	49.006367
9.170000	49.006367
9.180000	49.006367
9.190000	49.006367
9.200000	49.006367
9.210000	49.006367
9.220000	49.006367
9.230000	49.006367
9.240000	49.006367
9.250000	49.006367
9.260000	49.006367
9.270000	49.006367
9.280000	49.006367
9.290000	49.006367
9.300000	49.006367
9.310000	49.006367
9.320000	49.006367
9.330000	49.006367
9.340000	49.006367
9.350000	49.006367
9.360000	49.006367
9.370000	49.006367
9.380000	49.006367
9.390000	49.006367
9.400000	49.006367
9.410000	49.006367
9.420000	49.006367
9.430000	49.006367
9.440000	49.006367
9.450000	49.006367
9.460000	49.006367
9.470000	49.006367
9.480000	49.006367
9.490000	49.006367
9.500000	48.708955
9.510000	48.708955
9.520000	48.708955
9.530000	48.708955
9.540000	48.708955
9.550000	48.708955
9.560000	48.708955
9.570000	48.708955
9.580000	48.708955
9.590000	48.708955
9.600000	48.708955
9.610000	48.708955
9.620000	48.708955
9.630000	48.708955
9.640000	48.708955
9.650000	48.708955
9.660000	48.708955
9.670000	48.708955
9.680000	48.708955
9.690000	48.708955
9.700000	48.708955
9.710000	48.708955
9.720000	48.708955
9.730000	48.708955
9.740000	48.708955
9.750000	48.708955
9.760000	48.708955
9.770000	48.708955
9.780000	48.708955
9.790000	48.708955
9.800000	48.708955
9.810000	48.708955
9.820000	48.708955
9.830000	48.708955
9.840000	48.708955
9.850000	48.708955
9.860000	48.708955
9.870000	48.708955
9.880000	48.708955
9.890000	48.708955
9.900000	48.708955
9.910000	48.708955
9.920000	48.708955
9.930000	48.708955
9.940000	48.708955
9.950000	48.708955
9.960000	48.708955
9.970000	48.708955
9.980000	48.708955
9.990000	48.708955
10.000000	48.370135
10.010000	48.370135
10.020000	48.370135
10.030000	48.370135
10.040000	48.370135
10.050000	48.370135
10.060000	48.370135
10.070000	48.370135
10.080000	48.370135
10.090000	48.370135
10.100000	48.370135
10.110000	48.370135
10.120000	48.370135
10.130000	48.370135
10.140000	48.370135
10.150000	48.370135
10.160000	48.370135
10.170000	48.370135
10.180000	48.370135
10.190000	48.370135
10.200000	48.370135
10.210000	48.370135
10.220000	48.370135
10.230000	48.370135
10.240000	48.370135
10.250000	48.370135
10.260000	48.370135
10.270000	48.370135
10.280000	48.370135
10.290000	48.370135
10.300000	48.370135
10.310000	48.370135
10.320000	48.370135
10.330000	48.370135
10.340000	48.370135
10.350000	48.370135
10.360000	48.370135
10.370000	48.370135
10.380000	48.370135
10.390000	48.370135
10.400000	48.370135
10.410000	48.370135
10.420000	48.370135
10.430000	48.370135
10.440000	48.370135
10.450000	48.370135
10.460000	48.370135
10.470000	48.370135
10.480000	48.370135
10.490000	48.370135
10.500000	47.999057
10.510000	47.999057
10.520000	47.999057
10.530000	47.999057
10.540000	47.999057
10.550000	47.999057
10.560000	47.999057
10.570000	47.999057
10.580000	47.999057
10.590000	47.999057
10.600000	47.999057
10.610000	47.999057
10.620000	47.999057
10.630000	47.999057
10.640000	47.999057
10.650000	47.999057
10.660000	47.999057
10.670000	47.999057
10.680000	47.999057
10.690000	47.999057
10.700000	47.999057
10.710000	47.999057
10.720000	47.999057
10.730000	47.999057
10.740000	47.999057
10.750000	47.999057
10.760000	47.999057
10.770000	47.999057
10.780000	47.999057
10.790000	47.999057
10.800000	47.999057
10.810000	47.999057
10.820000	47.999057
10.830000	47.999057
10.840000	47.999057
10.850000	47.999057
10.860000	47.999057
10.870000	47.999057
10.880000	47.999057
10.890000	47.999057
10.900000	47.999057
10.910000	47.999057
10.920000	47.999057
10.930000	47.999057
10.940000	47.999057
10.950000	47.999057
10.960000	47.999057
10.970000	47.999057
10.980000	47.999057
10.990000	47.999057
11.000000	47.604238
11.010000	47.604238
11.020000	47.604238
11.030000	47.604238
11.040000	47.604238
11.050000	47.604238
11.060000	47.604238
11.070000	47.604238
11.080000	47.604238
11.090000	47.604238
11.100000	47.604238
11.110000	47.604238
11.120000	47.604238
11.130000	47.604238
11.140000	47.604238
11.150000	47.604238
11.160000	47.604238
11.170000	47.604238
11.180000	47.604238
11.190000	47.604238
11.200000	47.604238
11.210000	47.604238
11.220000	47.604238
11.230000	47.604238
11.240000	47.604238
11.250000	47.604238
11.260000	47.604238
11.270000	47.604238
11.280000	47.604238
11.290000	47.604238
11.300000	47.604238
11.310000	47.604238
11.320000	47.604238
11.330000	47.604238
11.340000	47.604238
11.350000	47.604238
11.360000	47.604238
11.370000	47.604238
11.380000	47.604238
11.390000	47.604238
11.400000	47.604238
11.410000	47.604238
11.420000	47.604238
11.430000	47.604238
11.440000	47.604238
11.450000	47.604238
11.460000	47.604238
11.470000	47.604238
11.480000	47.604238
11.490000	47.604238
11.500000	47.192569
11.510000	47.192569
11.520000	47.192569
11.530000	47.192569
11.540000	47.192569
11.550000	47.192569
11.560000	47.192569
11.570000	47.192569
11.580000	47.192569
11.590000	47.192569
11.600000	47.192569
11.610000	47.192569
11.620000	47.192569
11.630000	47.192569
11.640000	47.192569
11.650000	47.192569
11.660000	47.192569
11.670000	47.192569
11.680000	47.192569
11.690000	47.192569
11.700000	47.192569
11.710000	47.192569
11.720000	47.192569
11.730000	47.192569
11.740000	47.192569
11.750000	47.192569
11.760000	47.192569
11.770000	47.192569
11.780000	47.192569
11.790000	47.192569
11.800000	47.192569
11.810000	47.192569
11.820000	47.192569
11.830000	47.192569
11.840000	47.192569
11.850000	47.192569
11.860000	47.192569
11.870000	47.192569
11.880000	47.192569
11.890000	47.192569
11.900000	47.192569
11.910000	47.192569
11.920000	47.192569
11.930000	47.192569
11.940000	47.192569
11.950000	47.192569
11.960000	47.192569
11.970000	47.192569
11.980000	47.192569
11.990000	47.192569
12.000000	46.770181
12.010000	46.770181
12.020000	46.770181
12.030000	46.770181
12.040000	46.770181
12.050000	46.770181
12.060000	46.770181
12.070000	46.770181
12.080000	46.770181
12.090000	46.770181
12.100000	46.770181
12.110000	46.770181
12.120000	46.770181
12.130000	46.770181
12.140000	46.770181
12.150000	46.770181
12.160000	46.770181
12.170000	46.770181
12.180000	46.770181
12.190000	46.770181
12.200000	46.770181
12.210000	46.770181
12.220000	46.770181
12.230000	46.770181
12.240000	46.770181
12.250000	46.770181
12.260000	46.770181
12.270000	46.770181
12.280000	46.770181
12.290000	46.770181
12.300000	46.770181
12.310000	46.770181
12.320000	46.770181
12.330000	46.770181
12.340000	46.770181
12.350000	46.770181
12.360000	46.770181
12.370000	46.770181
12.380000	46.770181
12.390000	46.770181
12.400000	46.770181
12.410000	46.770181
12.420000	46.770181
12.430000	46.770181
12.440000	46.770181
12.450000	46.770181
12.460000	46.770181
12.470000	46.770181
12.480000	46.770181
12.490000	46.770181
12.500000	46.344062
12.510000	46.344062
12.520000	46.344062
12.530000	46.344062
12.540000	46.344062
12.550000	46.344062
12.560000	46.344062
12.570000	46.344062
12.580000	46.344062
12.590000	46.344062
12.600000	46.344062
12.610000	46.344062
12.620000	46.344062
12.630000	46.344062
12.640000	46.344062
12.650000	46.344062
12.660000	46.344062
12.670000	46.344062
12.680000	46.344062
12.690000	46.344062
12.700000	46.344062
12.710000	46.344062
12.720000	46.344062
12.730000	46.344062
12.740000	46.344062
12.750000	46.344062
12.760000	46.344062
12.770000	46.344062
12.780000	46.344062
12.790000	46.344062
12.800000	46.344062
12.810000	46.344062
12.820000	46.344062
12.830000	46.344062
12.840000	46.344062
12.850000	46.344062
12.860000	46.344062
12.870000	46.344062
12.880000	46.344062
12.890000	46.344062
12.900000	46.344062
12.910000	46.344062
12.920000	46.344062
12.930000	46.344062
12.940000	46.344062
12.950000	46.344062
12.960000	46.344062
12.970000	46.344062
12.980000	46.344062
12.990000	46.344062
13.000000	45.915170
13.010000	45.915170
13.020000	45.915170
13.030000	45.915170
13.040000	45.915170
13.050000	45.915170
13.060000	45.915170
13.070000	45.915170
13.080000	45.915170
13.090000	45.915170
13.100000	45.915170
13.110000	45.915170
13.120000	45.915170
13.130000	45.915170
13.140000	45.915170
13.150000	45.915170
13.160000	45.915170
13.170000	45.915170
13.180000	45.915170
13.190000	45.915170
13.200000	45.915170
13.210000	45.915170
13.220000	45.915170
13.230000	45.915170
13.240000	45.915170
13.250000	45.915170
13.260000	45.915170
13.270000	45.915170
13.280000	45.915170
13.290000	45.915170
13.300000	45.915170
13.310000	45.915170
13.320000	45.915170
13.330000	45.915170
13.340000	45.915170
13.350000	45.915170
13.360000	45.915170
13.370000	45.915170
13.380000	45.915170
13.390000	45.915170
13.400000	45.915170
13.410000	45.915170
13.420000	45.915170
13.430000	45.915170
13.440000	45.915170
13.450000	45.915170
13.460000	45.915170
13.470000	45.915170
13.480000	45.915170
13.490000	45.915170
13.500000	45.484358
13.510000	45.484358
13.520000	45.484358
13.530000	45.484358
13.540000	45.484358
13.550000	45.484358
13.560000	45.484358
13.570000	45.484358
13.580000	45.484358
13.590000	45.484358
13.600000	45.484358
13.610000	45.484358
13.620000	45.484358
13.630000	45.484358
13.640000	45.484358
13.650000	45.484358
13.660000	45.484358
13.670000	45.484358
13.680000	45.484358
13.690000	45.484358
13.700000	45.484358
13.710000	45.484358
13.720000	45.484358
13.730000	45.484358
13.740000	45.484358
13.750000	45.484358
13.760000	45.484358
13.770000	45.484358
13.780000	45.484358
13.790000	45.484358
13.800000	45.484358
13.810000	45.484358
13.820000	45.484358
13.830000	45.484358
13.840000	45.484358
13.850000	45.484358
13.860000	45.484358
13.870000	45.484358
13.880000	45.484358
13.890000	45.484358
13.900000	45.484358
13.910000	45.484358
13.920000	45.484358
13.930000	45.484358
13.940000	45.484358
13.950000	45.484358
13.960000	45.484358
13.970000	45.484358
13.980000	45.484358
13.990000	45.484358
14.000000	45.059175
14.010000	45.059175
14.020000	45.059175
14.030000	45.059175
14.040000	45.059175
14.050000	45.059175
14.060000	45.059175
14.070000	45.059175
14.080000	45.059175
14.090000	45.059175
14.100000	45.059175
14.110000	45.059175
14.120000	45.059175
14.130000	45.059175
14.140000	45.059175
14.150000	45.059175
14.160000	45.059175
14.170000	45.059175
14.180000	45.059175
14.190000	45.059175
14.200000	45.059175
14.210000	45.059175
14.220000	45.059175
14.230000	45.059175
14.240000	45.059175
14.250000	45.059175
14.260000	45.059175
14.270000	45.059175
14.280000	45.059175
14.290000	45.059175
14.300000	45.059175
14.310000	45.059175
14.320000	45.059175
14.330000	45.059175
14.340000	45.059175
14.350000	45.059175
14.360000	45.059175
14.370000	45.059175
14.380000	45.059175
14.390000	45.059175
14.400000	45.059175
14.410000	45.059175
14.420000	45.059175
14.430000	45.059175
14.440000	45.059175
14.450000	45.059175
14.460000	45.059175
14.470000	45.059175
14.480000	45.059175
14.490000	45.059175
14.500000	44.640998
14.510000	44.640998
14.520000	44.640998
14.530000	44.640998
14.540000	44.640998
14.550000	44.640998
14.560000	44.640998
14.570000	44.640998
14.580000	44.640998
14.590000	44.640998
14.600000	44.640998
14.610000	44.640998
14.620000	44.640998
14.630000	44.640998
14.640000	44.640998
14.650000	44.640998
14.660000	44.640998
14.670000	44.640998
14.680000	44.640998
14.690000	44.640998
14.700000	44.640998
14.710000	44.640998
14.720000	44.640998
14.730000	44.640998
14.740000	44.640998
14.750000	44.640998
14.760000	44.640998
14.770000	44.640998
14.780000	44.640998
14.790000	44.640998
14.800000	44.640998
14.810000	44.640998
14.820000	44.640998
14.830000	44.640998
14.840000	44.640998
14.850000	44.640998
14.860000	44.640998
14.870000	44.640998
14.880000	44.640998
14.890000	44.640998
14.900000	44.640998
14.910000	44.640998
14.920000	44.640998
14.930000	44.640998
14.940000	44.640998
14.950000	44.640998
14.960000	44.640998
14.970000	44.640998
14.980000	44.640998
14.990000	44.640998
15.000000	44.230972
15.010000	44.230972
15.020000	44.230972
15.030000	44.230972
15.040000	44.230972
15.050000	44.230972
15.060000	44.230972
15.070000	44.230972
15.080000	44.230972
15.090000	44.230972
15.100000	44.230972
15.110000	44.230972
15.120000	44.230972
15.130000	44.230972
15.140000	44.230972
15.150000	44.230972
15.160000	44.230972
15.170000	44.230972
15.180000	44.230972
15.190000	44.230972
15.200000	44.230972
15.210000	44.230972
15.220000	44.230972
15.230000	44.230972
15.240000	44.230972
15.250000	44.230972
15.260000	44.230972
15.270000	44.230972
15.280000	44.230972
15.290000	44.230972
15.300000	44.230972
15.310000	44.230972
15.320000	44.230972
15.330000	44.230972
15.340000	44.230972
15.350000	44.230972
15.360000	44.230972
15.370000	44.230972
15.380000	44.230972
15.390000	44.230972
15.400000	44.230972
15.410000	44.230972
15.420000	44.230972
15.430000	44.230972
15.440000	44.230972
15.450000	44.230972
15.460000	44.230972
15.470000	44.230972
15.480000	44.230972
15.490000	44.230972
15.500000	43.832545
15.510000	43.832545
15.520000	43.832545
15.530000	43.832545
15.540000	43.832545
15.550000	43.832545
15.560000	43.832545
15.570000	43.832545
15.580000	43.832545
15.590000	43.832545
15.600000	43.832545
15.610000	43.832545
15.620000	43.832545
15.630000	43.832545
15.640000	43.832545
15.650000	43.832545
15.660000	43.832545
15.670000	43.832545
15.680000	43.832545
15.690000	43.832545
15.700000	43.832545
15.710000	43.832545
15.720000	43.832545
15.730000	43.832545
15.740000	43.832545
15.750000	43.832545
15.760000	43.832545
15.770000	43.832545
15.780000	43.832545
15.790000	43.832545
15.800000	43.832545
15.810000	43.832545
15.820000	43.832545
15.830000	43.832545
15.840000	43.832545
15.850000	43.832545
15.860000	43.832545
15.870000	43.832545
15.880000	43.832545
15.890000	43.832545
15.900000	43.832545
15.910000	43.832545
15.920000	43.832545
15.930000	43.832545
15.940000	43.832545
15.950000	43.832545
15.960000	43.832545
15.970000	43.832545
15.980000	43.832545
15.990000	43.832545
16.000000	43.440066
16.010000	43.440066
16.020000	43.440066
16.030000	43.440066
16.040000	43.440066
16.050000	43.440066
16.060000	43.440066
16.070000	43.440066
16.080000	43.440066
16.090000	43.440066
16.100000	43.440066
16.110000	43.440066
16.120000	43.440066
16.130000	43.440066
16.140000	43.440066
16.150000	43.440066
16.160000	43.440066
16.170000	43.440066
16.180000	43.440066
16.190000	43.440066
16.200000	43.440066
16.210000	43.440066
16.220000	43.440066
16.230000	43.440066
16.240000	43.440066
16.250000	43.440066
16.260000	43.440066
16.270000	43.440066
16.280000	43.440066
16.290000	43.440066
16.300000	43.440066
16.310000	43.440066
16.320000	43.440066
16.330000	43.440066
16.340000	43.440066
16.350000	43.440066
16.360000	43.440066
16.370000	43.440066
16.380000	43.440066
16.390000	43.440066
16.400000	43.440066
16.410000	43.440066
16.420000	43.440066
16.430000	43.440066
16.440000	43.440066
16.450000	43.440066
16.460000	43.440066
16.470000	43.440066
16.480000	43.440066
16.490000	43.440066
16.500000	43.060025
16.510000	43.060025
16.520000	43.060025
16.530000	43.060025
16.540000	43.060025
16.550000	43.060025
16.560000	43.060025
16.570000	43.060025
16.580000	43.060025
16.590000	43.060025
16.600000	43.060025
16.610000	43.060025
16.620000	43.060025
16.630000	43.060025
16.640000	43.060025
16.650000	43.060025
16.660000	43.060025
16.670000	43.060025
16.680000	43.060025
16.690000	43.060025
16.700000	43.060025
16.710000	43.060025
16.720000	43.060025
16.730000	43.060025
16.740000	43.060025
16.750000	43.060025
16.760000	43.060025
16.770000	43.060025
16.780000	43.060025
16.790000	43.060025
16.800000	43.060025
16.810000	43.060025
16.820000	43.060025
16.830000	43.060025
16.840000	43.060025
16.850000	43.060025
16.860000	43.060025
16.870000	43.060025
16.880000	43.060025
16.890000	43.060025
16.900000	43.060025
16.910000	43.060025
16.920000	43.060025
16.930000	43.060025
16.940000	43.060025
16.950000	43.060025
16.960000	43.060025
16.970000	43.060025
16.980000	43.060025
16.990000	43.060025
17.000000	42.694512
17.010000	42.694512
17.020000	42.694512
17.030000	42.694512
17.040000	42.694512
17.050000	42.694512
17.060000	42.694512
17.070000	42.694512
17.080000	42.694512
17.090000	42.694512
17.100000	42.694512
17.110000	42.694512
17.120000	42.694512
17.130000	42.694512
17.140000	42.694512
17.150000	42.694512
17.160000	42.694512
17.170000	42.694512
17.180000	42.694512
17.190000	42.694512
17.200000	42.694512
17.210000	42.694512
17.220000	42.694512
17.230000	42.694512
17.240000	42.694512
17.250000	42.694512
17.260000	42.694512
17.270000	42.694512
17.280000	42.694512
17.290000	42.694512
17.300000	42.694512
17.310000	42.694512
17.320000	42.694512
17.330000	42.694512
17.340000	42.694512
17.350000	42.694512
17.360000	42.694512
17.370000	42.694512
17.380000	42.694512
17.390000	42.694512
17.400000	42.694512
17.410000	42.694512
17.420000	42.694512
17.430000	42.694512
17.440000	42.694512
17.450000	42.694512
17.460000	42.694512
17.470000	42.694512
17.480000	42.694512
17.490000	42.694512
17.500000	42.339279
17.510000	42.339279
17.520000	42.339279
17.530000	42.339279
17.540000	42.339279
17.550000	42.339279
17.560000	42.339279
17.570000	42.339279
17.580000	42.339279
17.590000	42.339279
17.600000	42.339279
17.610000	42.339279
17.620000	42.339279
17.630000	42.339279
17.640000	42.339279
17.650000	42.339279
17.660000	42.339279
17.670000	42.339279
17.680000	42.339279
17.690000	42.339279
17.700000	42.339279
17.710000	42.339279
17.720000	42.339279
17.730000	42.339279
17.740000	42.339279
17.750000	42.339279
17.760000	42.339279
17.770000	42.339279
17.780000	42.339279
17.790000	42.339279
17.800000	42.339279
17.810000	42.339279
17.820000	42.339279
17.830000	42.339279
17.840000	42.339279
17.850000	42.339279
17.860000	42.339279
17.870000	42.339279
17.880000	42.339279
17.890000	42.339279
17.900000	42.339279
17.910000	42.339279
17.920000	42.339279
17.930000	42.339279
17.940000	42.339279
17.950000	42.339279
17.960000	42.339279
17.970000	42.339279
17.980000	42.339279
17.990000	42.339279
