LabVIEW Measurement	
Writer_Version	2
Reader_Version	2
Separator	Tab
Decimal_Separator	.
Multi_Headings	No
X_Columns	One
Time_Pref	Absolute
Operator	biomech-dyno
Date	2023/05/23
Time	16:26:31.1792034999998606061
***End_of_Header***	
	
Channels	1	
Samples	10	
Date	2023/05/23	
Time	18:20:02.4916043999996988468	
X_Dimension	Time	
X0	0.0000000000000000E+0	
Delta_X	0.010000	
***End_of_Header***		
X_Value	Untitled	Comment
0.000000	25.163236
0.010000	25.163236
0.020000	25.163236
0.030000	25.163236
0.040000	25.163236
0.050000	25.163236
0.060000	25.163236
0.070000	25.163236
0.080000	25.163236
0.090000	25.163236
0.100000	25.163236
0.110000	25.163236
0.120000	25.163236
0.130000	25.163236
0.140000	25.163236
0.150000	25.163236
0.160000	25.163236
0.170000	25.163236
0.180000	25.163236
0.190000	25.163236
0.200000	25.163236
0.210000	25.163236
0.220000	25.163236
0.230000	25.163236
0.240000	25.163236
0.250000	25.163236
0.260000	25.163236
0.270000	25.163236
0.280000	25.163236
0.290000	25.163236
0.300000	25.163236
0.310000	25.163236
0.320000	25.163236
0.330000	25.163236
0.340000	25.163236
0.350000	25.163236
0.360000	25.163236
0.370000	25.163236
0.380000	25.163236
0.390000	25.163236
0.400000	25.163236
0.410000	25.163236
0.420000	25.163236
0.430000	25.163236
0.440000	25.163236
0.450000	25.163236
0.460000	25.163236
0.470000	25.163236
0.480000	25.163236
0.490000	25.163236
0.500000	25.232902
0.510000	25.232902
0.520000	25.232902
0.530000	25.232902
0.540000	25.232902
0.550000	25.232902
0.560000	25.232902
0.570000	25.232902
0.580000	25.232902
0.590000	25.232902
0.600000	25.232902
0.610000	25.232902
0.620000	25.232902
0.630000	25.232902
0.640000	25.232902
0.650000	25.232902
0.660000	25.232902
0.670000	25.232902
0.680000	25.232902
0.690000	25.232902
0.700000	25.232902
0.710000	25.232902
0.720000	25.232902
0.730000	25.232902
0.740000	25.232902
0.750000	25.232902
0.760000	25.232902
0.770000	25.232902
0.780000	25.232902
0.790000	25.232902
0.800000	25.232902
0.810000	25.232902
0.820000	25.232902
0.830000	25.232902
0.840000	25.232902
0.850000	25.232902
0.860000	25.232902
0.870000	25.232902
0.880000	25.232902
0.890000	25.232902
0.900000	25.232902
0.910000	25.232902
0.920000	25.232902
0.930000	25.232902
0.940000	25.232902
0.950000	25.232902
0.960000	25.232902
0.970000	25.232902
0.980000	25.232902
0.990000	25.232902
1.000000	25.936828
1.010000	25.936828
1.020000	25.936828
1.030000	25.936828
1.040000	25.936828
1.050000	25.936828
1.060000	25.936828
1.070000	25.936828
1.080000	25.936828
1.090000	25.936828
1.100000	25.936828
1.110000	25.936828
1.120000	25.936828
1.130000	25.936828
1.140000	25.936828
1.150000	25.936828
1.160000	25.936828
1.170000	25.936828
1.180000	25.936828
1.190000	25.936828
1.200000	25.936828
1.210000	25.936828
1.220000	25.936828
1.230000	25.936828
1.240000	25.936828
1.250000	25.936828
1.260000	25.936828
1.270000	25.936828
1.280000	25.936828
1.290000	25.936828
1.300000	25.936828
1.310000	25.936828
1.320000	25.936828
1.330000	25.936828
1.340000	25.936828
1.350000	25.936828
1.360000	25.936828
1.370000	25.936828
1.380000	25.936828
1.390000	25.936828
1.400000	25.936828
1.410000	25.936828
1.420000	25.936828
1.430000	25.936828
1.440000	25.936828
1.450000	25.936828
1.460000	25.936828
1.470000	25.936828
1.480000	25.936828
1.490000	25.936828
1.500000	27.590373
1.510000	27.590373
1.520000	27.590373
1.530000	27.590373
1.540000	27.590373
1.550000	27.590373
1.560000	27.590373
1.570000	27.590373
1.580000	27.590373
1.590000	27.590373
1.600000	27.590373
1.610000	27.590373
1.620000	27.590373
1.630000	27.590373
1.640000	27.590373
1.650000	27.590373
1.660000	27.590373
1.670000	27.590373
1.680000	27.590373
1.690000	27.590373
1.700000	27.590373
1.710000	27.590373
1.720000	27.590373
1.730000	27.590373
1.740000	27.590373
1.750000	27.590373
1.760000	27.590373
1.770000	27.590373
1.780000	27.590373
1.790000	27.590373
1.800000	27.590373
1.810000	27.590373
1.820000	27.590373
1.830000	27.590373
1.840000	27.590373
1.850000	27.590373
1.860000	27.590373
1.870000	27.590373
1.880000	27.590373
1.890000	27.590373
1.900000	27.590373
1.910000	27.590373
1.920000	27.590373
1.930000	27.590373
1.940000	27.590373
1.950000	27.590373
1.960000	27.590373
1.970000	27.590373
1.980000	27.590373
1.990000	27.590373
2.000000	30.030149
2.010000	30.030149
2.020000	30.030149
2.030000	30.030149
2.040000	30.030149
2.050000	30.030149
2.060000	30.030149
2.070000	30.030149
2.080000	30.030149
2.090000	30.030149
2.100000	30.030149
2.110000	30.030149
2.120000	30.030149
2.130000	30.030149
2.140000	30.030149
2.150000	30.030149
2.160000	30.030149
2.170000	30.030149
2.180000	30.030149
2.190000	30.030149
2.200000	30.030149
2.210000	30.030149
2.220000	30.030149
2.230000	30.030149
2.240000	30.030149
2.250000	30.030149
2.260000	30.030149
2.270000	30.030149
2.280000	30.030149
2.290000	30.030149
2.300000	30.030149
2.310000	30.030149
2.320000	30.030149
2.330000	30.030149
2.340000	30.030149
2.350000	30.030149
2.360000	30.030149
2.370000	30.030149
2.380000	30.030149
2.390000	30.030149
2.400000	30.030149
2.410000	30.030149
2.420000	30.030149
2.430000	30.030149
2.440000	30.030149
2.450000	30.030149
2.460000	30.030149
2.470000	30.030149
2.480000	30.030149
2.490000	30.030149
2.500000	33.075438
2.510000	33.075438
2.520000	33.075438
2.530000	33.075438
2.540000	33.075438
2.550000	33.075438
2.560000	33.075438
2.570000	33.075438
2.580000	33.075438
2.590000	33.075438
2.600000	33.075438
2.610000	33.075438
2.620000	33.075438
2.630000	33.075438
2.640000	33.075438
2.650000	33.075438
2.660000	33.075438
2.670000	33.075438
2.680000	33.075438
2.690000	33.075438
2.700000	33.075438
2.710000	33.075438
2.720000	33.075438
2.730000	33.075438
2.740000	33.075438
2.750000	33.075438
2.760000	33.075438
2.770000	33.075438
2.780000	33.075438
2.790000	33.075438
2.800000	33.075438
2.810000	33.075438
2.820000	33.075438
2.830000	33.075438
2.840000	33.075438
2.850000	33.075438
2.860000	33.075438
2.870000	33.075438
2.880000	33.075438
2.890000	33.075438
2.900000	33.075438
2.910000	33.075438
2.920000	33.075438
2.930000	33.075438
2.940000	33.075438
2.950000	33.075438
2.960000	33.075438
2.970000	33.075438
2.980000	33.075438
2.990000	33.075438
3.000000	36.579492
3.010000	36.579492
3.020000	36.579492
3.030000	36.579492
3.040000	36.579492
3.050000	36.579492
3.060000	36.579492
3.070000	36.579492
3.080000	36.579492
3.090000	36.579492
3.100000	36.579492
3.110000	36.579492
3.120000	36.579492
3.130000	36.579492
3.140000	36.579492
3.150000	36.579492
3.160000	36.579492
3.170000	36.579492
3.180000	36.579492
3.190000	36.579492
3.200000	36.579492
3.210000	36.579492
3.220000	36.579492
3.230000	36.579492
3.240000	36.579492
3.250000	36.579492
3.260000	36.579492
3.270000	36.579492
3.280000	36.579492
3.290000	36.579492
3.300000	36.579492
3.310000	36.579492
3.320000	36.579492
3.330000	36.579492
3.340000	36.579492
3.350000	36.579492
3.360000	36.579492
3.370000	36.579492
3.380000	36.579492
3.390000	36.579492
3.400000	36.579492
3.410000	36.579492
3.420000	36.579492
3.430000	36.579492
3.440000	36.579492
3.450000	36.579492
3.460000	36.579492
3.470000	36.579492
3.480000	36.579492
3.490000	36.579492
3.500000	40.338284
3.510000	40.338284
3.520000	40.338284
3.530000	40.338284
3.540000	40.338284
3.550000	40.338284
3.560000	40.338284
3.570000	40.338284
3.580000	40.338284
3.590000	40.338284
3.600000	40.338284
3.610000	40.338284
3.620000	40.338284
3.630000	40.338284
3.640000	40.338284
3.650000	40.338284
3.660000	40.338284
3.670000	40.338284
3.680000	40.338284
3.690000	40.338284
3.700000	40.338284
3.710000	40.338284
3.720000	40.338284
3.730000	40.338284
3.740000	40.338284
3.750000	40.338284
3.760000	40.338284
3.770000	40.338284
3.780000	40.338284
3.790000	40.338284
3.800000	40.338284
3.810000	40.338284
3.820000	40.338284
3.830000	40.338284
3.840000	40.338284
3.850000	40.338284
3.860000	40.338284
3.870000	40.338284
3.880000	40.338284
3.890000	40.338284
3.900000	40.338284
3.910000	40.338284
3.920000	40.338284
3.930000	40.338284
3.940000	40.338284
3.950000	40.338284
3.960000	40.338284
3.970000	40.338284
3.980000	40.338284
3.990000	40.338284
4.000000	43.661551
4.010000	43.661551
4.020000	43.661551
4.030000	43.661551
4.040000	43.661551
4.050000	43.661551
4.060000	43.661551
4.070000	43.661551
4.080000	43.661551
4.090000	43.661551
4.100000	43.661551
4.110000	43.661551
4.120000	43.661551
4.130000	43.661551
4.140000	43.661551
4.150000	43.661551
4.160000	43.661551
4.170000	43.661551
4.180000	43.661551
4.190000	43.661551
4.200000	43.661551
4.210000	43.661551
4.220000	43.661551
4.230000	43.661551
4.240000	43.661551
4.250000	43.661551
4.260000	43.661551
4.270000	43.661551
4.280000	43.661551
4.290000	43.661551
4.300000	43.661551
4.310000	43.661551
4.320000	43.661551
4.330000	43.661551
4.340000	43.661551
4.350000	43.661551
4.360000	43.661551
4.370000	43.661551
4.380000	43.661551
4.390000	43.661551
4.400000	43.661551
4.410000	43.661551
4.420000	43.661551
4.430000	43.661551
4.440000	43.661551
4.450000	43.661551
4.460000	43.661551
4.470000	43.661551
4.480000	43.661551
4.490000	43.661551
4.500000	46.200193
4.510000	46.200193
4.520000	46.200193
4.530000	46.200193
4.540000	46.200193
4.550000	46.200193
4.560000	46.200193
4.570000	46.200193
4.580000	46.200193
4.590000	46.200193
4.600000	46.200193
4.610000	46.200193
4.620000	46.200193
4.630000	46.200193
4.640000	46.200193
4.650000	46.200193
4.660000	46.200193
4.670000	46.200193
4.680000	46.200193
4.690000	46.200193
4.700000	46.200193
4.710000	46.200193
4.720000	46.200193
4.730000	46.200193
4.740000	46.200193
4.750000	46.200193
4.760000	46.200193
4.770000	46.200193
4.780000	46.200193
4.790000	46.200193
4.800000	46.200193
4.810000	46.200193
4.820000	46.200193
4.830000	46.200193
4.840000	46.200193
4.850000	46.200193
4.860000	46.200193
4.870000	46.200193
4.880000	46.200193
4.890000	46.200193
4.900000	46.200193
4.910000	46.200193
4.920000	46.200193
4.930000	46.200193
4.940000	46.200193
4.950000	46.200193
4.960000	46.200193
4.970000	46.200193
4.980000	46.200193
4.990000	46.200193
5.000000	48.066183
5.010000	48.066183
5.020000	48.066183
5.030000	48.066183
5.040000	48.066183
5.050000	48.066183
5.060000	48.066183
5.070000	48.066183
5.080000	48.066183
5.090000	48.066183
5.100000	48.066183
5.110000	48.066183
5.120000	48.066183
5.130000	48.066183
5.140000	48.066183
5.150000	48.066183
5.160000	48.066183
5.170000	48.066183
5.180000	48.066183
5.190000	48.066183
5.200000	48.066183
5.210000	48.066183
5.220000	48.066183
5.230000	48.066183
5.240000	48.066183
5.250000	48.066183
5.260000	48.066183
5.270000	48.066183
5.280000	48.066183
5.290000	48.066183
5.300000	48.066183
5.310000	48.066183
5.320000	48.066183
5.330000	48.066183
5.340000	48.066183
5.350000	48.066183
5.360000	48.066183
5.370000	48.066183
5.380000	48.066183
5.390000	48.066183
5.400000	48.066183
5.410000	48.066183
5.420000	48.066183
5.430000	48.066183
5.440000	48.066183
5.450000	48.066183
5.460000	48.066183
5.470000	48.066183
5.480000	48.066183
5.490000	48.066183
5.500000	49.392982
5.510000	49.392982
5.520000	49.392982
5.530000	49.392982
5.540000	49.392982
5.550000	49.392982
5.560000	49.392982
5.570000	49.392982
5.580000	49.392982
5.590000	49.392982
5.600000	49.392982
5.610000	49.392982
5.620000	49.392982
5.630000	49.392982
5.640000	49.392982
5.650000	49.392982
5.660000	49.392982
5.670000	49.392982
5.680000	49.392982
5.690000	49.392982
5.700000	49.392982
5.710000	49.392982
5.720000	49.392982
5.730000	49.392982
5.740000	49.392982
5.750000	49.392982
5.760000	49.392982
5.770000	49.392982
5.780000	49.392982
5.790000	49.392982
5.800000	49.392982
5.810000	49.392982
5.820000	49.392982
5.830000	49.392982
5.840000	49.392982
5.850000	49.392982
5.860000	49.392982
5.870000	49.392982
5.880000	49.392982
5.890000	49.392982
5.900000	49.392982
5.910000	49.392982
5.920000	49.392982
5.930000	49.392982
5.940000	49.392982
5.950000	49.392982
5.960000	49.392982
5.970000	49.392982
5.980000	49.392982
5.990000	49.392982
6.000000	50.279578
6.010000	50.279578
6.020000	50.279578
6.030000	50.279578
6.040000	50.279578
6.050000	50.279578
6.060000	50.279578
6.070000	50.279578
6.080000	50.279578
6.090000	50.279578
6.100000	50.279578
6.110000	50.279578
6.120000	50.279578
6.130000	50.279578
6.140000	50.279578
6.150000	50.279578
6.160000	50.279578
6.170000	50.279578
6.180000	50.279578
6.190000	50.279578
6.200000	50.279578
6.210000	50.279578
6.220000	50.279578
6.230000	50.279578
6.240000	50.279578
6.250000	50.279578
6.260000	50.279578
6.270000	50.279578
6.280000	50.279578
6.290000	50.279578
6.300000	50.279578
6.310000	50.279578
6.320000	50.279578
6.330000	50.279578
6.340000	50.279578
6.350000	50.279578
6.360000	50.279578
6.370000	50.279578
6.380000	50.279578
6.390000	50.279578
6.400000	50.279578
6.410000	50.279578
6.420000	50.279578
6.430000	50.279578
6.440000	50.279578
6.450000	50.279578
6.460000	50.279578
6.470000	50.279578
6.480000	50.279578
6.490000	50.279578
6.500000	50.834552
6.510000	50.834552
6.520000	50.834552
6.530000	50.834552
6.540000	50.834552
6.550000	50.834552
6.560000	50.834552
6.570000	50.834552
6.580000	50.834552
6.590000	50.834552
6.600000	50.834552
6.610000	50.834552
6.620000	50.834552
6.630000	50.834552
6.640000	50.834552
6.650000	50.834552
6.660000	50.834552
6.670000	50.834552
6.680000	50.834552
6.690000	50.834552
6.700000	50.834552
6.710000	50.834552
6.720000	50.834552
6.730000	50.834552
6.740000	50.834552
6.750000	50.834552
6.760000	50.834552
6.770000	50.834552
6.780000	50.834552
6.790000	50.834552
6.800000	50.834552
6.810000	50.834552
6.820000	50.834552
6.830000	50.834552
6.840000	50.834552
6.850000	50.834552
6.860000	50.834552
6.870000	50.834552
6.880000	50.834552
6.890000	50.834552
6.900000	50.834552
6.910000	50.834552
6.920000	50.834552
6.930000	50.834552
6.940000	50.834552
6.950000	50.834552
6.960000	50.834552
6.970000	50.834552
6.980000	50.834552
6.990000	50.834552
7.000000	51.149587
7.010000	51.149587
7.020000	51.149587
7.030000	51.149587
7.040000	51.149587
7.050000	51.149587
7.060000	51.149587
7.070000	51.149587
7.080000	51.149587
7.090000	51.149587
7.100000	51.149587
7.110000	51.149587
7.120000	51.149587
7.130000	51.149587
7.140000	51.149587
7.150000	51.149587
7.160000	51.149587
7.170000	51.149587
7.180000	51.149587
7.190000	51.149587
7.200000	51.149587
7.210000	51.149587
7.220000	51.149587
7.230000	51.149587
7.240000	51.149587
7.250000	51.149587
7.260000	51.149587
7.270000	51.149587
7.280000	51.149587
7.290000	51.149587
7.300000	51.149587
7.310000	51.149587
7.320000	51.149587
7.330000	51.149587
7.340000	51.149587
7.350000	51.149587
7.360000	51.149587
7.370000	51.149587
7.380000	51.149587
7.390000	51.149587
7.400000	51.149587
7.410000	51.149587
7.420000	51.149587
7.430000	51.149587
7.440000	51.149587
7.450000	51.149587
7.460000	51.149587
7.470000	51.149587
7.480000	51.149587
7.490000	51.149587
7.500000	51.278728
7.510000	51.278728
7.520000	51.278728
7.530000	51.278728
7.540000	51.278728
7.550000	51.278728
7.560000	51.278728
7.570000	51.278728
7.580000	51.278728
7.590000	51.278728
7.600000	51.278728
7.610000	51.278728
7.620000	51.278728
7.630000	51.278728
7.640000	51.278728
7.650000	51.278728
7.660000	51.278728
7.670000	51.278728
7.680000	51.278728
7.690000	51.278728
7.700000	51.278728
7.710000	51.278728
7.720000	51.278728
7.730000	51.278728
7.740000	51.278728
7.750000	51.278728
7.760000	51.278728
7.770000	51.278728
7.780000	51.278728
7.790000	51.278728
7.800000	51.278728
7.810000	51.278728
7.820000	51.278728
7.830000	51.278728
7.840000	51.278728
7.850000	51.278728
7.860000	51.278728
7.870000	51.278728
7.880000	51.278728
7.890000	51.278728
7.900000	51.278728
7.910000	51.278728
7.920000	51.278728
7.930000	51.278728
7.940000	51.278728
7.950000	51.278728
7.960000	51.278728
7.970000	51.278728
7.980000	51.278728
7.990000	51.278728
8.000000	51.249060
8.010000	51.249060
8.020000	51.249060
8.030000	51.249060
8.040000	51.249060
8.050000	51.249060
8.060000	51.249060
8.070000	51.249060
8.080000	51.249060
8.090000	51.249060
8.100000	51.249060
8.110000	51.249060
8.120000	51.249060
8.130000	51.249060
8.140000	51.249060
8.150000	51.249060
8.160000	51.249060
8.170000	51.249060
8.180000	51.249060
8.190000	51.249060
8.200000	51.249060
8.210000	51.249060
8.220000	51.249060
8.230000	51.249060
8.240000	51.249060
8.250000	51.249060
8.260000	51.249060
8.270000	51.249060
8.280000	51.249060
8.290000	51.249060
8.300000	51.249060
8.310000	51.249060
8.320000	51.249060
8.330000	51.249060
8.340000	51.249060
8.350000	51.249060
8.360000	51.249060
8.370000	51.249060
8.380000	51.249060
8.390000	51.249060
8.400000	51.249060
8.410000	51.249060
8.420000	51.249060
8.430000	51.249060
8.440000	51.249060
8.450000	51.249060
8.460000	51.249060
8.470000	51.249060
8.480000	51.249060
8.490000	51.249060
8.500000	51.097467
8.510000	51.097467
8.520000	51.097467
8.530000	51.097467
8.540000	51.097467
8.550000	51.097467
8.560000	51.097467
8.570000	51.097467
8.580000	51.097467
8.590000	51.097467
8.600000	51.097467
8.610000	51.097467
8.620000	51.097467
8.630000	51.097467
8.640000	51.097467
8.650000	51.097467
8.660000	51.097467
8.670000	51.097467
8.680000	51.097467
8.690000	51.097467
8.700000	51.097467
8.710000	51.097467
8.720000	51.097467
8.730000	51.097467
8.740000	51.097467
8.750000	51.097467
8.760000	51.097467
8.770000	51.097467
8.780000	51.097467
8.790000	51.097467
8.800000	51.097467
8.810000	51.097467
8.820000	51.097467
8.830000	51.097467
8.840000	51.097467
8.850000	51.097467
8.860000	51.097467
8.870000	51.097467
8.880000	51.097467
8.890000	51.097467
8.900000	51.097467
8.910000	51.097467
8.920000	51.097467
8.930000	51.097467
8.940000	51.097467
8.950000	51.097467
8.960000	51.097467
8.970000	51.097467
8.980000	51.097467
8.990000	51.097467
9.000000	50.854664
9.010000	50.854664
9.020000	50.854664
9.030000	50.854664
9.040000	50.854664
9.050000	50.854664
9.060000	50.854664
9.070000	50.854664
9.080000	50.854664
9.090000	50.854664
9.100000	50.854664
9.110000	50.854664
9.120000	50.854664
9.130000	50.854664
9.140000	50.854664
9.150000	50.854664
9.160000	50.854664
9.170000	50.854664
9.180000	50.854664
9.190000	50.854664
9.200000	50.854664
9.210000	50.854664
9.220000	50.854664
9.230000	50.854664
9.240000	50.854664
9.250000	50.854664
9.260000	50.854664
9.270000	50.854664
9.280000	50.854664
9.290000	50.854664
9.300000	50.854664
9.310000	50.854664
9.320000	50.854664
9.330000	50.854664
9.340000	50.854664
9.350000	50.854664
9.360000	50.854664
9.370000	50.854664
9.380000	50.854664
9.390000	50.854664
9.400000	50.854664
9.410000	50.854664
9.420000	50.854664
9.430000	50.854664
9.440000	50.854664
9.450000	50.854664
9.460000	50.854664
9.470000	50.854664
9.480000	50.854664
9.490000	50.854664
9.500000	50.543643
9.510000	50.543643
9.520000	50.543643
9.530000	50.543643
9.540000	50.543643
9.550000	50.543643
9.560000	50.543643
9.570000	50.543643
9.580000	50.543643
9.590000	50.543643
9.600000	50.543643
9.610000	50.543643
9.620000	50.543643
9.630000	50.543643
9.640000	50.543643
9.650000	50.543643
9.660000	50.543643
9.670000	50.543643
9.680000	50.543643
9.690000	50.543643
9.700000	50.543643
9.710000	50.543643
9.720000	50.543643
9.730000	50.543643
9.740000	50.543643
9.750000	50.543643
9.760000	50.543643
9.770000	50.543643
9.780000	50.543643
9.790000	50.543643
9.800000	50.543643
9.810000	50.543643
9.820000	50.543643
9.830000	50.543643
9.840000	50.543643
9.850000	50.543643
9.860000	50.543643
9.870000	50.543643
9.880000	50.543643
9.890000	50.543643
9.900000	50.543643
9.910000	50.543643
9.920000	50.543643
9.930000	50.543643
9.940000	50.543643
9.950000	50.543643
9.960000	50.543643
9.970000	50.543643
9.980000	50.543643
9.990000	50.543643
10.000000	50.184498
10.010000	50.184498
10.020000	50.184498
10.030000	50.184498
10.040000	50.184498
10.050000	50.184498
10.060000	50.184498
10.070000	50.184498
10.080000	50.184498
10.090000	50.184498
10.100000	50.184498
10.110000	50.184498
10.120000	50.184498
10.130000	50.184498
10.140000	50.184498
10.150000	50.184498
10.160000	50.184498
10.170000	50.184498
10.180000	50.184498
10.190000	50.184498
10.200000	50.184498
10.210000	50.184498
10.220000	50.184498
10.230000	50.184498
10.240000	50.184498
10.250000	50.184498
10.260000	50.184498
10.270000	50.184498
10.280000	50.184498
10.290000	50.184498
10.300000	50.184498
10.310000	50.184498
10.320000	50.184498
10.330000	50.184498
10.340000	50.184498
10.350000	50.184498
10.360000	50.184498
10.370000	50.184498
10.380000	50.184498
10.390000	50.184498
10.400000	50.184498
10.410000	50.184498
10.420000	50.184498
10.430000	50.184498
10.440000	50.184498
10.450000	50.184498
10.460000	50.184498
10.470000	50.184498
10.480000	50.184498
10.490000	50.184498
10.500000	49.787555
10.510000	49.787555
10.520000	49.787555
10.530000	49.787555
10.540000	49.787555
10.550000	49.787555
10.560000	49.787555
10.570000	49.787555
10.580000	49.787555
10.590000	49.787555
10.600000	49.787555
10.610000	49.787555
10.620000	49.787555
10.630000	49.787555
10.640000	49.787555
10.650000	49.787555
10.660000	49.787555
10.670000	49.787555
10.680000	49.787555
10.690000	49.787555
10.700000	49.787555
10.710000	49.787555
10.720000	49.787555
10.730000	49.787555
10.740000	49.787555
10.750000	49.787555
10.760000	49.787555
10.770000	49.787555
10.780000	49.787555
10.790000	49.787555
10.800000	49.787555
10.810000	49.787555
10.820000	49.787555
10.830000	49.787555
10.840000	49.787555
10.850000	49.787555
10.860000	49.787555
10.870000	49.787555
10.880000	49.787555
10.890000	49.787555
10.900000	49.787555
10.910000	49.787555
10.920000	49.787555
10.930000	49.787555
10.940000	49.787555
10.950000	49.787555
10.960000	49.787555
10.970000	49.787555
10.980000	49.787555
10.990000	49.787555
11.000000	49.362292
11.010000	49.362292
11.020000	49.362292
11.030000	49.362292
11.040000	49.362292
11.050000	49.362292
11.060000	49.362292
11.070000	49.362292
11.080000	49.362292
11.090000	49.362292
11.100000	49.362292
11.110000	49.362292
11.120000	49.362292
11.130000	49.362292
11.140000	49.362292
11.150000	49.362292
11.160000	49.362292
11.170000	49.362292
11.180000	49.362292
11.190000	49.362292
11.200000	49.362292
11.210000	49.362292
11.220000	49.362292
11.230000	49.362292
11.240000	49.362292
11.250000	49.362292
11.260000	49.362292
11.270000	49.362292
11.280000	49.362292
11.290000	49.362292
11.300000	49.362292
11.310000	49.362292
11.320000	49.362292
11.330000	49.362292
11.340000	49.362292
11.350000	49.362292
11.360000	49.362292
11.370000	49.362292
11.380000	49.362292
11.390000	49.362292
11.400000	49.362292
11.410000	49.362292
11.420000	49.362292
11.430000	49.362292
11.440000	49.362292
11.450000	49.362292
11.460000	49.362292
11.470000	49.362292
11.480000	49.362292
11.490000	49.362292
11.500000	48.925643
11.510000	48.925643
11.520000	48.925643
11.530000	48.925643
11.540000	48.925643
11.550000	48.925643
11.560000	48.925643
11.570000	48.925643
11.580000	48.925643
11.590000	48.925643
11.600000	48.925643
11.610000	48.925643
11.620000	48.925643
11.630000	48.925643
11.640000	48.925643
11.650000	48.925643
11.660000	48.925643
11.670000	48.925643
11.680000	48.925643
11.690000	48.925643
11.700000	48.925643
11.710000	48.925643
11.720000	48.925643
11.730000	48.925643
11.740000	48.925643
11.750000	48.925643
11.760000	48.925643
11.770000	48.925643
11.780000	48.925643
11.790000	48.925643
11.800000	48.925643
11.810000	48.925643
11.820000	48.925643
11.830000	48.925643
11.840000	48.925643
11.850000	48.925643
11.860000	48.925643
11.870000	48.925643
11.880000	48.925643
11.890000	48.925643
11.900000	48.925643
11.910000	48.925643
11.920000	48.925643
11.930000	48.925643
11.940000	48.925643
11.950000	48.925643
11.960000	48.925643
11.970000	48.925643
11.980000	48.925643
11.990000	48.925643
12.000000	48.483543
12.010000	48.483543
12.020000	48.483543
12.030000	48.483543
12.040000	48.483543
12.050000	48.483543
12.060000	48.483543
12.070000	48.483543
12.080000	48.483543
12.090000	48.483543
12.100000	48.483543
12.110000	48.483543
12.120000	48.483543
12.130000	48.483543
12.140000	48.483543
12.150000	48.483543
12.160000	48.483543
12.170000	48.483543
12.180000	48.483543
12.190000	48.483543
12.200000	48.483543
12.210000	48.483543
12.220000	48.483543
12.230000	48.483543
12.240000	48.483543
12.250000	48.483543
12.260000	48.483543
12.270000	48.483543
12.280000	48.483543
12.290000	48.483543
12.300000	48.483543
12.310000	48.483543
12.320000	48.483543
12.330000	48.483543
12.340000	48.483543
12.350000	48.483543
12.360000	48.483543
12.370000	48.483543
12.380000	48.483543
12.390000	48.483543
12.400000	48.483543
12.410000	48.483543
12.420000	48.483543
12.430000	48.483543
12.440000	48.483543
12.450000	48.483543
12.460000	48.483543
12.470000	48.483543
12.480000	48.483543
12.490000	48.483543
12.500000	48.029457
12.510000	48.029457
12.520000	48.029457
12.530000	48.029457
12.540000	48.029457
12.550000	48.029457
12.560000	48.029457
12.570000	48.029457
12.580000	48.029457
12.590000	48.029457
12.600000	48.029457
12.610000	48.029457
12.620000	48.029457
12.630000	48.029457
12.640000	48.029457
12.650000	48.029457
12.660000	48.029457
12.670000	48.029457
12.680000	48.029457
12.690000	48.029457
12.700000	48.029457
12.710000	48.029457
12.720000	48.029457
12.730000	48.029457
12.740000	48.029457
12.750000	48.029457
12.760000	48.029457
12.770000	48.029457
12.780000	48.029457
12.790000	48.029457
12.800000	48.029457
12.810000	48.029457
12.820000	48.029457
12.830000	48.029457
12.840000	48.029457
12.850000	48.029457
12.860000	48.029457
12.870000	48.029457
12.880000	48.029457
12.890000	48.029457
12.900000	48.029457
12.910000	48.029457
12.920000	48.029457
12.930000	48.029457
12.940000	48.029457
12.950000	48.029457
12.960000	48.029457
12.970000	48.029457
12.980000	48.029457
12.990000	48.029457
13.000000	47.570556
13.010000	47.570556
13.020000	47.570556
13.030000	47.570556
13.040000	47.570556
13.050000	47.570556
13.060000	47.570556
13.070000	47.570556
13.080000	47.570556
13.090000	47.570556
13.100000	47.570556
13.110000	47.570556
13.120000	47.570556
13.130000	47.570556
13.140000	47.570556
13.150000	47.570556
13.160000	47.570556
13.170000	47.570556
13.180000	47.570556
13.190000	47.570556
13.200000	47.570556
13.210000	47.570556
13.220000	47.570556
13.230000	47.570556
13.240000	47.570556
13.250000	47.570556
13.260000	47.570556
13.270000	47.570556
13.280000	47.570556
13.290000	47.570556
13.300000	47.570556
13.310000	47.570556
13.320000	47.570556
13.330000	47.570556
13.340000	47.570556
13.350000	47.570556
13.360000	47.570556
13.370000	47.570556
13.380000	47.570556
13.390000	47.570556
13.400000	47.570556
13.410000	47.570556
13.420000	47.570556
13.430000	47.570556
13.440000	47.570556
13.450000	47.570556
13.460000	47.570556
13.470000	47.570556
13.480000	47.570556
13.490000	47.570556
13.500000	47.117478
13.510000	47.117478
13.520000	47.117478
13.530000	47.117478
13.540000	47.117478
13.550000	47.117478
13.560000	47.117478
13.570000	47.117478
13.580000	47.117478
13.590000	47.117478
13.600000	47.117478
13.610000	47.117478
13.620000	47.117478
13.630000	47.117478
13.640000	47.117478
13.650000	47.117478
13.660000	47.117478
13.670000	47.117478
13.680000	47.117478
13.690000	47.117478
13.700000	47.117478
13.710000	47.117478
13.720000	47.117478
13.730000	47.117478
13.740000	47.117478
13.750000	47.117478
13.760000	47.117478
13.770000	47.117478
13.780000	47.117478
13.790000	47.117478
13.800000	47.117478
13.810000	47.117478
13.820000	47.117478
13.830000	47.117478
13.840000	47.117478
13.850000	47.117478
13.860000	47.117478
13.870000	47.117478
13.880000	47.117478
13.890000	47.117478
13.900000	47.117478
13.910000	47.117478
13.920000	47.117478
13.930000	47.117478
13.940000	47.117478
13.950000	47.117478
13.960000	47.117478
13.970000	47.117478
13.980000	47.117478
13.990000	47.117478
14.000000	46.666870
14.010000	46.666870
14.020000	46.666870
14.030000	46.666870
14.040000	46.666870
14.050000	46.666870
14.060000	46.666870
14.070000	46.666870
14.080000	46.666870
14.090000	46.666870
14.100000	46.666870
14.110000	46.666870
14.120000	46.666870
14.130000	46.666870
14.140000	46.666870
14.150000	46.666870
14.160000	46.666870
14.170000	46.666870
14.180000	46.666870
14.190000	46.666870
14.200000	46.666870
14.210000	46.666870
14.220000	46.666870
14.230000	46.666870
14.240000	46.666870
14.250000	46.666870
14.260000	46.666870
14.270000	46.666870
14.280000	46.666870
14.290000	46.666870
14.300000	46.666870
14.310000	46.666870
14.320000	46.666870
14.330000	46.666870
14.340000	46.666870
14.350000	46.666870
14.360000	46.666870
14.370000	46.666870
14.380000	46.666870
14.390000	46.666870
14.400000	46.666870
14.410000	46.666870
14.420000	46.666870
14.430000	46.666870
14.440000	46.666870
14.450000	46.666870
14.460000	46.666870
14.470000	46.666870
14.480000	46.666870
14.490000	46.666870
14.500000	46.221533
14.510000	46.221533
14.520000	46.221533
14.530000	46.221533
14.540000	46.221533
14.550000	46.221533
14.560000	46.221533
14.570000	46.221533
14.580000	46.221533
14.590000	46.221533
14.600000	46.221533
14.610000	46.221533
14.620000	46.221533
14.630000	46.221533
14.640000	46.221533
14.650000	46.221533
14.660000	46.221533
14.670000	46.221533
14.680000	46.221533
14.690000	46.221533
14.700000	46.221533
14.710000	46.221533
14.720000	46.221533
14.730000	46.221533
14.740000	46.221533
14.750000	46.221533
14.760000	46.221533
14.770000	46.221533
14.780000	46.221533
14.790000	46.221533
14.800000	46.221533
14.810000	46.221533
14.820000	46.221533
14.830000	46.221533
14.840000	46.221533
14.850000	46.221533
14.860000	46.221533
14.870000	46.221533
14.880000	46.221533
14.890000	46.221533
14.900000	46.221533
14.910000	46.221533
14.920000	46.221533
14.930000	46.221533
14.940000	46.221533
14.950000	46.221533
14.960000	46.221533
14.970000	46.221533
14.980000	46.221533
14.990000	46.221533
15.000000	45.784301
15.010000	45.784301
15.020000	45.784301
15.030000	45.784301
15.040000	45.784301
15.050000	45.784301
15.060000	45.784301
15.070000	45.784301
15.080000	45.784301
15.090000	45.784301
15.100000	45.784301
15.110000	45.784301
15.120000	45.784301
15.130000	45.784301
15.140000	45.784301
15.150000	45.784301
15.160000	45.784301
15.170000	45.784301
15.180000	45.784301
15.190000	45.784301
15.200000	45.784301
15.210000	45.784301
15.220000	45.784301
15.230000	45.784301
15.240000	45.784301
15.250000	45.784301
15.260000	45.784301
15.270000	45.784301
15.280000	45.784301
15.290000	45.784301
15.300000	45.784301
15.310000	45.784301
15.320000	45.784301
15.330000	45.784301
15.340000	45.784301
15.350000	45.784301
15.360000	45.784301
15.370000	45.784301
15.380000	45.784301
15.390000	45.784301
15.400000	45.784301
15.410000	45.784301
15.420000	45.784301
15.430000	45.784301
15.440000	45.784301
15.450000	45.784301
15.460000	45.784301
15.470000	45.784301
15.480000	45.784301
15.490000	45.784301
15.500000	45.354755
15.510000	45.354755
15.520000	45.354755
15.530000	45.354755
15.540000	45.354755
15.550000	45.354755
15.560000	45.354755
15.570000	45.354755
15.580000	45.354755
15.590000	45.354755
15.600000	45.354755
15.610000	45.354755
15.620000	45.354755
15.630000	45.354755
15.640000	45.354755
15.650000	45.354755
15.660000	45.354755
15.670000	45.354755
15.680000	45.354755
15.690000	45.354755
15.700000	45.354755
15.710000	45.354755
15.720000	45.354755
15.730000	45.354755
15.740000	45.354755
15.750000	45.354755
15.760000	45.354755
15.770000	45.354755
15.780000	45.354755
15.790000	45.354755
15.800000	45.354755
15.810000	45.354755
15.820000	45.354755
15.830000	45.354755
15.840000	45.354755
15.850000	45.354755
15.860000	45.354755
15.870000	45.354755
15.880000	45.354755
15.890000	45.354755
15.900000	45.354755
15.910000	45.354755
15.920000	45.354755
15.930000	45.354755
15.940000	45.354755
15.950000	45.354755
15.960000	45.354755
15.970000	45.354755
15.980000	45.354755
15.990000	45.354755
16.000000	44.937418
16.010000	44.937418
16.020000	44.937418
16.030000	44.937418
16.040000	44.937418
16.050000	44.937418
16.060000	44.937418
16.070000	44.937418
16.080000	44.937418
16.090000	44.937418
16.100000	44.937418
16.110000	44.937418
16.120000	44.937418
16.130000	44.937418
16.140000	44.937418
16.150000	44.937418
16.160000	44.937418
16.170000	44.937418
16.180000	44.937418
16.190000	44.937418
16.200000	44.937418
16.210000	44.937418
16.220000	44.937418
16.230000	44.937418
16.240000	44.937418
16.250000	44.937418
16.260000	44.937418
16.270000	44.937418
16.280000	44.937418
16.290000	44.937418
16.300000	44.937418
16.310000	44.937418
16.320000	44.937418
16.330000	44.937418
16.340000	44.937418
16.350000	44.937418
16.360000	44.937418
16.370000	44.937418
16.380000	44.937418
16.390000	44.937418
16.400000	44.937418
16.410000	44.937418
16.420000	44.937418
16.430000	44.937418
16.440000	44.937418
16.450000	44.937418
16.460000	44.937418
16.470000	44.937418
16.480000	44.937418
16.490000	44.937418
16.500000	44.533113
16.510000	44.533113
16.520000	44.533113
16.530000	44.533113
16.540000	44.533113
16.550000	44.533113
16.560000	44.533113
16.570000	44.533113
16.580000	44.533113
16.590000	44.533113
16.600000	44.533113
16.610000	44.533113
16.620000	44.533113
16.630000	44.533113
16.640000	44.533113
16.650000	44.533113
16.660000	44.533113
16.670000	44.533113
16.680000	44.533113
16.690000	44.533113
16.700000	44.533113
16.710000	44.533113
16.720000	44.533113
16.730000	44.533113
16.740000	44.533113
16.750000	44.533113
16.760000	44.533113
16.770000	44.533113
16.780000	44.533113
16.790000	44.533113
16.800000	44.533113
16.810000	44.533113
16.820000	44.533113
16.830000	44.533113
16.840000	44.533113
16.850000	44.533113
16.860000	44.533113
16.870000	44.533113
16.880000	44.533113
16.890000	44.533113
16.900000	44.533113
16.910000	44.533113
16.920000	44.533113
16.930000	44.533113
16.940000	44.533113
16.950000	44.533113
16.960000	44.533113
16.970000	44.533113
16.980000	44.533113
16.990000	44.533113
17.000000	44.138975
17.010000	44.138975
17.020000	44.138975
17.030000	44.138975
17.040000	44.138975
17.050000	44.138975
17.060000	44.138975
17.070000	44.138975
17.080000	44.138975
17.090000	44.138975
17.100000	44.138975
17.110000	44.138975
17.120000	44.138975
17.130000	44.138975
17.140000	44.138975
17.150000	44.138975
17.160000	44.138975
17.170000	44.138975
17.180000	44.138975
17.190000	44.138975
17.200000	44.138975
17.210000	44.138975
17.220000	44.138975
17.230000	44.138975
17.240000	44.138975
17.250000	44.138975
17.260000	44.138975
17.270000	44.138975
17.280000	44.138975
17.290000	44.138975
17.300000	44.138975
17.310000	44.138975
17.320000	44.138975
17.330000	44.138975
17.340000	44.138975
17.350000	44.138975
17.360000	44.138975
17.370000	44.138975
17.380000	44.138975
17.390000	44.138975
17.400000	44.138975
17.410000	44.138975
17.420000	44.138975
17.430000	44.138975
17.440000	44.138975
17.450000	44.138975
17.460000	44.138975
17.470000	44.138975
17.480000	44.138975
17.490000	44.138975
17.500000	43.753858
17.510000	43.753858
17.520000	43.753858
17.530000	43.753858
17.540000	43.753858
17.550000	43.753858
17.560000	43.753858
17.570000	43.753858
17.580000	43.753858
17.590000	43.753858
17.600000	43.753858
17.610000	43.753858
17.620000	43.753858
17.630000	43.753858
17.640000	43.753858
17.650000	43.753858
17.660000	43.753858
17.670000	43.753858
17.680000	43.753858
17.690000	43.753858
17.700000	43.753858
17.710000	43.753858
17.720000	43.753858
17.730000	43.753858
17.740000	43.753858
17.750000	43.753858
17.760000	43.753858
17.770000	43.753858
17.780000	43.753858
17.790000	43.753858
17.800000	43.753858
17.810000	43.753858
17.820000	43.753858
17.830000	43.753858
17.840000	43.753858
17.850000	43.753858
17.860000	43.753858
17.870000	43.753858
17.880000	43.753858
17.890000	43.753858
17.900000	43.753858
17.910000	43.753858
17.920000	43.753858
17.930000	43.753858
17.940000	43.753858
17.950000	43.753858
17.960000	43.753858
17.970000	43.753858
17.980000	43.753858
17.990000	43.753858
